
[ev]
941673600 95
949276800 735.2
949622400 806
996364800 6728.3
996537600 6737.8
996710400 6753.5
996796800 6761.6
996883200 6767
996969600 6778.1
997056000 6797.5
997228800 6813.2
997401600 6830
997660800 6858.2
998179200 6898.2
998524800 6931.9
998697600 6948.7
999129600 7011
999216000 7020.1
999993600 7124.7
1001030400 7256.1
1001116800 7266.7
1001203200 7283
1001376000 7296.4
1001635200 7336.5
1001808000 7347.2
1002153600 7387.8
1002326400 7409.8
1002499200 7431.5
1002758400 7458.7
1002844800 7466.1
1003104000 7512.7
1003276800 7533
1003795200 7616.3
1004313600 7691.8
1004486400 7706.2
1004572800 7720.3
1004918400 7768.6
1005004800 7783.6
1005350400 7828
1005782400 7901.4
1006214400 7959.6
1009324800 8459.7
1009497600 8491.1
1009756800 8553.9
1009929600 8585.3
1010102400 8597.9
1010448000 8784.3
1011052800 8795.6
1011398400 8855.4
1012176000 9001.2
1012435200 9032.6
1012608000 9055.9
1012867200 9117.6
1013040000 9149.2
1013472000 9219.3
1013731200 9257.3
1014249600 9367.4
1014940800 9488
1016409600 9705.2
1016841600 9757.8
1017360000 9857.4
1017964800 9922.9
1018051200 9945.8
1018224000 9974
1018483200 10020.2
1018742400 10058
1019088000 10103.4
1019433600 10154.4
1020643200 10301.5
1020902400 10343.1
1020988800 10359.4
1021161600 10369.5
1021334400 10389.5
1021939200 10451.6
1022025600 10451.6
1022371200 10500
1022889600 10579.1
1022976000 10588
1023580800 10654.8
1023926400 10688.5
1024099200 10708.6
1024272000 10732
1024358400 10739.7
1024444800 10742.5
1024531200 10755.1
1024617600 10765.6
1024704000 10775
1024790400 10780.1
1024876800 10810.6
1024963200 10816.4
1025136000 10848.2
1025395200 10879.7
1025568000 10890.2
1026000000 10919
1026518400 10984.7
1027209600 11074.5
1027814400 11141.8
1028246400 11190.5
1028592000 11226
1029628800 11347.7
1029974400 11397.1
1030233600 11432.1
1030579200 11465.6
1030665600 11471.5
1030838400 11495.4
1030924800 11508.8
1031011200 11512.7
1031184000 11525.8
1031529600 11575.9
1032048000 11621
1033603200 11841.8
1034380800 11922.7
1034899200 12014.2
1035763200 12158.9
1038700800 12652.4
1041292800 13170.1
1041465600 13208.4
1041552000 13223.4
1041724800 13256.5
1041897600 13295.9
1042761600 13474.2
1042934400 13505.4
1043020800 13475.2
1043712000 13686.4
1044057600 13761.9
1045180800 13997.8
1046304000 14221.7
1046390400 14221.7
1048291200 14565.8
1048896000 14684.8
1049500800 14799.4
1049760000 14835.2
1050451200 14933.2
1051228800 15047.2
1051401600 15059.3
1052092800 15164
1052611200 15251.2
1052784000 15287.5
1061856000 16586.5
1067558400 16586.5
1070755200 18229.8
1070841600 18229.8
1071878400 18470.4
1072137600 18511.5
1072828800 18595
1074988800 19021.5
1075334400 19097.6
1075507200 19125.8
1075593600 19136.6
1079395200 19893.4
1079740800 19990.8
1079913600 20008.8
1080864000 20168.9
1082073600 20379.7
1085875200 20975.4
1091145600 21693.2
1091491200 21730.1
1091750400 21753.4
1092009600 21779.1
1092528000 21843.1
1093132800 21907.6
1093392000 21953.7
1093996800 22024.9
1094083200 22042.3
1094342400 22070.6
1094515200 22090.8
1094774400 22130
1094947200 22145.7
1095033600 22158.1
1095120000 22181
1095292800 22208.9
1095379200 22224.7
1095552000 22238
1096502400 22403.2
1096934400 22467.9
1097107200 22496.7
1099180800 22850.1
1099440000 22885.8
1099526400 22892.4
1099612800 22906
1103500800 23610.5
1103673600 23639.8
1104451200 23784.5
1104796800 23841.6
1104883200 23848.4
1105142400 23895.9
1105228800 23923
1105574400 23992.7
1105920000 24050.9
1106870400 24242.6
1107216000 24294.4
1107561600 24357
1108339200 24518.6
1108771200 24608.1
1109289600 24706
1109635200 24775.3
1110153600 24874.7
1110326400 24931.9
1111017600 25080.3
1112227200 25294
1112486400 25341
1112918400 25376.3
1113523200 25480.3
1114128000 25570.7
1114732800 25664
1114819200 25675
1114905600 25684.5
1115251200 25727.4
1115510400 25776.6
1116547200 25951.6
1117152000 26020.6
1117756800 26110.4
1120176000 26460.5
1123200000 26847.5
1123804800 26945.7
1125187200 27117.2
1127433600 27406.6
1128038400 27496.6
1128297600 27533.6
1128729600 27575.8
1129420800 27674
1129939200 27698.2
1130112000 27721.4
1130198400 27764
1130630400 27826.2
1130716800 27843.4
1130976000 27871
1131062400 27882.8
1131235200 27896.6
1131321600 27912.2
1131753600 27976.4
1132185600 28052.2
1132531200 28103.8
1132876800 28160.1
1133481600 28250
1133654400 28276.5
1134172800 28374
1134777600 28486.5
1135728000 28644.8
1135814400 28652.9
1135900800 28666.3
1136073600 28695.7
1136160000 28720.8
1136246400 28733.6
1136332800 28747
1136419200 28759.9
1136505600 28776.2
1136592000 28791.1
1136678400 28801.4
1136764800 28817
1136851200 28827.5
1136937600 28848
1137024000 28859.5
1137110400 28871.2
1137196800 28885.5
1137283200 28899.2
1137369600 28919.9
1137456000 28944.2
1137542400 28955.9
1137628800 28970.3
1137715200 28989.3
1137888000 29022.1
1137974400 29039.3
1138060800 29051.4
1138147200 29068.1
1138233600 29081.5
1138320000 29090.3
1138406400 29100.3
1138492800 29116.8
1138579200 29139.7
1138665600 29148.8
1138752000 29162.5
1138838400 29176.7
1138924800 29191.1
1139011200 29211
1139097600 29218
1139184000 29238.9
1139270400 29252.7
1139356800 29264.8
1139443200 29275.9
1139529600 29289.6
1139616000 29302.3
1139702400 29310.2
1139788800 29323.6
1139875200 29336.9
1139961600 29351.6
1140220800 29401.6
1140307200 29416.6
1140393600 29431.1
1140480000 29444.1
1140566400 29457.1
1140739200 29481.8
1140825600 29488.4
1140998400 29518.8
1141084800 29532.1
1141171200 29545.4
1141344000 29580.2
1141516800 29601
1141603200 29614.6
1141689600 29628.1
1141776000 29641.4
1141948800 29666.6
1142035200 29677.3
1142121600 29684.4
1142208000 29705.1
1142294400 29726.5
1142380800 29743.6
1142553600 29773
1142640000 29785.8
1142726400 29796.6
1142812800 29813.4
1142899200 29824.8
1142985600 29835.7
1143158400 29866.4
1143244800 29878.5
1143590400 29931.3
1143763200 29963.5
1143849600 29971.9
1143936000 29984.9
1144022400 30000.1
1144108800 30017.1
1144454400 30070.5
1144540800 30079.8
1144627200 30095.4
1144713600 30108.6
1144972800 30164.3
1145059200 30176.2
1145145600 30204.5
1145232000 30216.2
1145318400 30229.1
1145577600 30252.3
1145664000 30257.7
1145750400 30268.4
1145836800 30281
1145923200 30291.7
1146009600 30302.3
1146096000 30313.9
1146182400 30323.2
1146268800 30334.2
1146355200 30345.6
1146441600 30360.1
1146528000 30373.8
1146787200 30405.8
1146873600 30413
1146960000 30420.1
1147046400 30428.9
1147132800 30439.9
1147392000 30467.5
1147478400 30474.7
1147564800 30485.9
1147651200 30491.8
1147737600 30499.7
1148083200 30534
1148169600 30546.8
1148256000 30558.2
1148342400 30569.1
1148428800 30575
1148860800 30633.7
1148947200 30640.1
1149206400 30669.8
1149638400 30725
1149724800 30735.4
1149811200 30741.2
1149897600 30749
1149984000 30757.7
1150070400 30774.3
1150156800 30785.4
1150416000 30819.7
1150502400 30830.7
1150588800 30838.5
1150675200 30848
1150761600 30858.9
1150848000 30875.4
1150934400 30881.5
1151020800 30894.5
1151107200 30902.1
1151193600 30912.1
1151280000 30922.9
1151366400 30931.3
1151452800 30940.4
1151625600 30958.4
1151798400 30974.4
1151884800 30982.4
1151971200 30991.4
1152144000 31009.8
1152230400 31018.3
1152316800 31028
1152403200 31039.1
1152576000 31053.5
1152748800 31071.7
1152835200 31081.7
1152921600 31092.1
1153008000 31099.3
1153094400 31110.8
1153180800 31119.6
1153353600 31142.3
1153612800 31163.6
1153785600 31181.4
1153872000 31195.3
1154217600 31207.6
1154304000 31215
1154563200 31246.8
1154995200 31287.7
1155600000 31364.9
1156032000 31416.4
1156118400 31429.4
1156204800 31438
1156291200 31444.7
1156464000 31466.8
1156636800 31483.2
1156723200 31490.4
1156809600 31497.7
1156896000 31510.1
1156982400 31519.2
1157068800 31531.2
1157155200 31538.9
1157241600 31545.1
1157328000 31555.5
1157414400 31563.3
1157587200 31587.3
1157673600 31598
1157760000 31610.3
1157846400 31621.1
1157932800 31627.7
1158019200 31637.2
1158105600 31650.2
1158278400 31670
1158364800 31678.7
1158710400 31721.7
1158796800 31733
1158883200 31742.5
1158969600 31753
1159056000 31761.1
1159142400 31770.7
1159228800 31777.2
1159315200 31788.5
1159488000 31809.1
1159574400 31818.6
1159833600 31844.8
1159920000 31852.1
1160006400 31864.5
1160092800 31872.8
1160265600 31889.7
1160352000 31901.6
1160438400 31909.5
1160524800 31924.9
1160611200 31935.6
1160870400 31959.1
1160956800 31969.4
1161043200 31978.9
1161129600 31991
1161216000 32003
1161302400 32013.8
1161475200 32030.7
1161561600 32039.8
1161820800 32074
1161993600 32087.2
1162080000 32097.7
1162166400 32107.5
1162252800 32118.6
1162339200 32126.7
1162425600 32146.1
1162771200 32190.3
1162944000 32212.5
1163030400 32228.5
1163116800 32245.9
1163289600 32267.9
1163462400 32302.5
1163548800 32311.1
1163635200 32321
1163808000 32339.9
1163980800 32366.5
1164067200 32377.8
1164153600 32393.8
1164499200 32448.5
1164672000 32475.3
1164931200 32513.3
1165104000 32543.5
1165190400 32565.8
1165536000 32618.8
1165708800 32644
1165795200 32655.5
1166054400 32695.5
1166313600 32735.4
1166486400 32753.9
1166659200 32787.6
1166918400 32826
1167523200 32917.2
1167696000 32948.3
1167782400 32958.4
1168041600 32998.7
1168128000 33013.7
1168214400 33024.9
1168300800 33035.9
1168387200 33046.8
1168732800 33098.5
1168819200 33113.6
1168905600 33123.1
1168992000 33147.4
1169078400 33159.7
1169164800 33170.4
1169337600 33190.8
1169424000 33208.4
1169510400 33227.7
1169596800 33237.5
1169683200 33250.9
1169769600 33263.4
1169856000 33280.1
1169942400 33293.1
1170028800 33308.9
1170115200 33317.9
1170201600 33330.8
1170288000 33343.1
1170374400 33353.8
1170460800 33378.2
1170547200 33388.4
1170633600 33401.8
1170720000 33412.4
1170806400 33423.3
1170892800 33436.1
1170979200 33445.5
1171065600 33458.9
1171152000 33472.4
1171238400 33487.9
1171324800 33504.8
1171411200 33517.5
1171497600 33527.5
1171584000 33537.2
1171670400 33549.6
1171756800 33565.8
1171843200 33577.6
1171929600 33587.7
1172016000 33599.6
1172102400 33613.1
1172188800 33623.2
1172275200 33636.1
1172361600 33650.8
1172448000 33667.9
1172534400 33683.4
1172620800 33694.2
1172707200 33710.2
1172966400 33745.4
1173052800 33761.9
1173139200 33775.8
1173225600 33790.6
1173312000 33802.2
1173398400 33818.4
1173484800 33825.1
1173571200 33833.6
1173657600 33843.1
1173744000 33851.6
1173830400 33861.8
1173916800 33869.1
1174003200 33877.7
1174089600 33890.6
1174176000 33900.1
1174262400 33909.8
1174348800 33922.3
1174435200 33938.3
1174521600 33951.2
1174608000 33965.9
1174780800 33989.7
1174867200 34001.1
1174953600 34009.5
1175040000 34017.9
1175126400 34025.5
1175212800 34035.2
1175299200 34046.8
1175385600 34058.1
1175472000 34069.5
1175558400 34082.9
1175644800 34094.1
1175731200 34104.1
1175817600 34114.9
1175970840 34124.9
1175990400 34137.5
1176076800 34145.3
1176163200 34154.7
1176422400 34190.4
1176508800 34196.3
1176595200 34207.3
1176681600 34220.3
1176768000 34227.9
1176854400 34235.9
1176940800 34243.6
1177027200 34253.9
1177113600 34265.6
1177200000 34275.9
1177286400 34281.8
1177372800 34290.9
1177459200 34301.1
1177545600 34311.2
1177632000 34320.1
1177718400 34326.9
1177804800 34339.7
1177891200 34348.6
1177977600 34358.9
1178064000 34367.9
1178150400 34378.1
1178236800 34393.4
1178409600 34413.7
1178582400 34435.7
1178668800 34446.3
1178755200 34452.4
1178841600 34463.8
1179014400 34484.9
1179187200 34501.8
1179446400 34533.7
1179532800 34543.5
1179619200 34552.1
1179705600 34563.6
1179792000 34577.4
1179878400 34590.9
1179964800 34600.1
1180224000 34633.1
1180310400 34645.8
1180569600 34672.3
1180656000 34682.4
1180742400 34692.6
1180828800 34700.6
1180915200 34710.9
1181001600 34719.8
1181088000 34730.8
1181174400 34741.6
1181260800 34752.7
1181347200 34761.9
1181433600 34770.4
1181692800 34803.2
1181952000 34837.7
1182124800 34857.9
1182211200 34870.7
1182297600 34880.2
1182643200 34920.8
1182729600 34931.9
1182902400 34952.5
1182988800 34964.8
1183075200 34974.9
1183161600 34983.3
1183248000 34992.1
1183507200 35026.3
1183680000 35049.3
1183766400 35054.2
1183852800 35063.5
1183939200 35070.1
1184025600 35078.6
1184112000 35084.4
1184198400 35095.5
1184371200 35114.1
1184457600 35123.1
1184544000 35131.5
1184630400 35139.4
1184803200 35147.2
1184976000 35161.2
1185062400 35172.4
1185148800 35187.1
1185235200 35198.4
1185321600 35210.9
1185408000 35216.1
1185580800 35233.1
1185667200 35241.5
1185753600 35247.1
1186012800 35273.6
1186099200 35285.1
1186185600 35289.6
1186272000 35297.4
1186358400 35302.5
1186444800 35314.1
1186704000 35339.1
1186876800 35341.7
1186963200 35352.7
1187049600 35359.1
1188086400 35466.4
1188259200 35483.7
1188345600 35492.9
1188432000 35498.5
1188604800 35520.1
1188691200 35539.8
1188777600 35550.6
1188950400 35564.6
1190246400 35726.7
1191110400 35836.9
1192060800 35955.6
1192406400 35997.1
1192492800 36008.3
1192752000 36040.4
1192924800 36065.3
1193011200 36085.3
1193443200 36146.3
1195603200 36521.6
1197331200 36806.8
1198022400 36923.9
1198108800 36935.9
1198195200 36951.3
1198281600 36962.4
1198368000 36977.5
1198454400 36988.7
1198540800 37004
1198627200 37016
1198713600 37025.8
1198800000 37041.6
1198886400 37053.9
1198972800 37068.6
1199059200 37082.7
1199145600 37097.3
1199232000 37112.6
1199318400 37126.4
1199404800 37138.5
1199491200 37152.9
1199577600 37171.1
1199664000 37188.8
1199750400 37200.5
1199836800 37210.4
1199923200 37226.7
1200009600 37243.4
1200096000 37256.3
1200182400 37272.8
1200268800 37289.3
1200700800 37350.8
1200787200 37363.4
1200873600 37378.3
1200960000 37397.4
1201046400 37412.4
1201132800 37427.7
1201219200 374442
1201305600 37452.5
1201392000 37466.5
1201478400 37479.6
1201564800 37495.9
1201651200 37511.3
1201737600 37523.3
1201824000 37535.7
1201910400 37553.2
1201996800 37564.7
1202083200 37576.9
1202169600 37590.6
1202256000 37603.5
1202342400 37618.1
1202428800 37630.3
1202515200 37646.3
1202601600 37657.2
1202688000 37670.4
1202774400 37682.3
1202860800 37697.5
1202947200 37714.4
1203033600 37726.4
1203120000 37735.6
1203206400 37747.9
1203292800 37764.3
1203379200 37778.4
1203465600 37790
1203552000 37807.1
1203638400 37820.5
1203811200 37845
1203897600 37858.8
1204070400 37882.9
1204156800 37898.4
1204243200 37914.5
1204416000 37941.2
1204502400 37952.8
1204588800 37963.3
1204675200 37973
1204761600 37987.9
1204848000 38006.4
1204934400 38022.5
1205020800 38033.5
1205107200 38049.8
1205193600 38060.9
1205280000 38069.5
1205366400 38080.9
1205539200 38104.8
1205625600 38118.1
1205712000 38130.8
1205798400 38143.8
1205884800 38153.5
1205971200 38166.1
1206057600 38178.2
1206144000 38190.1
1206316800 38212.1
1206403200 38223.8
1206489600 38231.6
1206576000 38245.1
1206662400 38257.7
1206748800 38269.2
1206835200 38279.9
1206921600 38287.1
1207008000 38296.9
1207094400 38306.9
1207180800 38317.7
1207267200 38329.6
1207353600 38339.1
1207440000 38353.7
1207526400 38365.4
1207612800 38371.1
1207699200 38383.5
1207872000 38405.6
1207958400 38413
1208044800 38425
1208131200 38440
1208304000 38459.3
1208390400 38469.4
1208476800 38476.5
1208563200 38485.6
1208649600 38498
1208736000 38511.3
1208822400 38518.1
1208908800 38526.3
1208995200 38533.3
1209081600 38541.2
1209168000 38549.8
1209254400 38556.9
1209340800 38566.1
1209427200 38576.3
1209513600 38584.8
1209600000 38592.5
1209686400 38600.3
1209772800 38612.3
1209859200 38622
1209945600 38631.2
1210118400 38643.7
1210204800 38650.1
1210291200 38658.5
1210464000 38673.8
1210550400 38678.8
1210636800 38690.9
1210723200 38696.5
1210809600 38704.2
1210896000 38711.2
1211068800 38725.2
1211241600 38741.4
1211328000 38746.8
1211414400 38755.7
1211500800 38760.9
1211587200 38767.2
1211673600 38774.8
1211760000 38786.5
1211846400 38798.3
1211932800 38807.4
1212192000 38838.7
1212278400 38850.5
1212364800 38858.1
1212451200 38866.4
1212624000 38882.1
1212710400 38890.2
1212883200 38908.6
1212969600 38918.4
1213142400 38935.3
1213228800 38945.8
1213401600 38960.9
1213574400 38984
1213660800 38992.5
1213747200 39000.4
1213833600 39013.6
1214092800 39037.9
1214179200 39049.1
1214265600 39058.6
1214438400 39078
1214524800 39085.9
1214697600 39102.3
1214784000 39115
1214870400 39119.9
1214956800 39129.8
1215043200 39139.7
1215129600 39148.5
1215475200 39188.5
1215561600 39195.9
1215648000 39206.7
1215907200 39230.4
1215993600 39236.6
1216080000 39242.2
1216166400 39251.3
1216252800 39263.4
1216339200 39271.9
1216425600 39283
1216512000 39293.9
1216598400 39301.3
1216684800 39312.7
1216771200 39322.3
1216857600 39325.1
1216944000 39332.1
1217116800 39346.9
1217203200 39355.1
1217289600 39363.1
1217376000 39371.1
1217462400 39377.8
1217721600 39397.2
1217808000 39408.8
1217894400 39416
1217980800 39423.2
1218067200 39430.5
1218153600 39436.6
1218326400 39453.9
1218412800 39461.2
1218499200 39469.7
1218585600 39475.2
1218672000 39483.8
1218758400 39489.9
1218931200 39501.9
1219017600 39509.3
1219104000 39513.9
1219190400 39521.3
1219276800 39533.1
1219363200 39538.8
1219449600 39547.3
1219536000 39554.5
1219622400 39565.2
1219708800 39572.3
1219795200 39578.9
1219968000 39596.9
1220140800 39619.1
1220227200 39632.8
1220313600 39645.1
1220400000 39656.7
1220486400 39669.4
1220572800 39682.6
1220832000 39711.8
1220918400 39718.2
1221004800 39728.7
1221091200 39744.5
1221177600 39752.5
1221264000 39762.4
1221350400 39770.3
1221436800 39780.3
1221523200 39790.4
1221609600 39802.1
1221782400 39824.5
1222300800 39905.6
1222387200 39921.6
1222560000 39940
1222646400 39948.7
1222732800 39961.3
1222992000 39999.8
1223164800 40029.6
1223769600 40039.6
1223856000 40050.7
1223942400 40059.7
1224028800 40071.1
1224115200 40083
1224201600 40096
1224374400 40120
1224460800 40131.8
1224547200 40147.2
1224633600 40156.3
1224720000 40165.8
1224806400 40172.1
1224892800 40185.3
1224979200 40197.4
1225065600 40211.1
1225152000 40221.1
1225238400 40237.8
1225324800 40252.7
1225411200 40267.9
1225584000 40295.2
1225670400 40309.7
1225756800 40320.6
1225929600 40344.7
1226102400 40364.3
1226275200 40390
1226448000 40421.5
1226534400 40434.4
1226620800 40448.7
1226707200 40459.6
1226793600 40475.6
1226880000 40489.6
1226966400 40501.4
1227052800 40512.5
1227139200 40526.9
1227744000 40623.9
1227830400 40631.4
1227916800 40645.5
1228003200 40656.8
1228089600 40670.8
1228176000 40680.7
1228262400 40700.1
1228348800 40713
1228780800 40786
1229385600 40902.6
1229558400 40931.4
1229644800 40941
1230163200 41035
1230249600 41049.9
1230422400 41076.4
1230508800 41091.1
1230595200 41102.9
1230681600 41117.9
1230768000 41134
1230854400 41145.9
1230940800 41156.6
1231027200 41166.1
1231113600 41181.1
1231200000 41194
1231286400 41212.4
1231372800 41228.6
1231459200 41242.2
1231545600 41257.1
1231632000 41272
1231718400 41285
1231804800 41303.4
1231891200 41324
1231977600 41339
1232064000 41353
1232150400 41364.9
1232236800 41375.3
1232323200 41388.5
1232409600 41405.3
1232496000 41415.7
1232582400 41432.4
1232755200 41453.5
1232841600 41466.3
1232928000 41481.9
1233014400 41495.6
1233100800 41508.6
1233187200 41523.9
1233360000 41546.9
1233446400 41558.2
1233619200 41584
1233792000 41615
1234137600 41669
1234224000 41685.4
1234310400 41697.2
1234396800 41714.5
1234483200 41723.2
1234742400 41765
1234828800 41779
1234915200 41793.4
1235001600 41804.4
1235260800 41830.3
1235347200 41852
1235520000 41883.8
1235692800 41908.1
1235865600 41932.4
1235952000 41955
1236038400 41968.2
1236124800 41986.7
1236384000 42021.9
1236470400 42034.3
1236556800 42054.2
1236643200 42067.7
1236988800 42112.1
1237075200 42124.8
1237161600 42136
1237248000 42152.6
1237334400 42166.4
1237939200 42256.8
1238025600 42269.8
1238371200 42315.6
1238457600 42325.9
1238544000 42340.8
1238630400 42350.8
1238716800 42361.6
1238803200 42370.3
1238889600 42379.8
1238976000 42387.8
1239148800 42406.3
1239235200 42412
1239321600 42420.7
1239408000 42428.8
1239494400 42437.7
1239580800 42448.6
1239667200 42460.6
1239753600 42475.5
1240012800 42514.4
1240099200 42526.7
1240272000 42553
1240358400 42562.6
1240617600 42607.4
1240704000 42622.1
1240790400 42635.7
1240876800 42646.9
1240963200 42657.6
1241395200 42720.5
1241913600 42793.6
1242518400 42878.6
1242604800 42888
1243814400 43039.4
1245196800 43228.6
1246233600 43373.2
1246406400 43403.6
1246752000 43442.8
1247788800 43591.9
1247875200 43600
1248048000 43620.3
1248739200 43709.8
1248998400 43755.2
1249257600 43761.4
1249344000 43773.8
1249516800 43792.8
1249689600 43812.2
1250208000 43869.3
1250467200 43893.8
1250726400 43929.8
1251590400 44043.3
1252972800 44232
1254268800 44413
1255478400 44612.4
1255824000 44669
1256169600 44727.8
1256774400 44836.1
1256947200 44860.2
1257379200 44926.5
1258329600 45095.1
1258934400 45208.1
1259193600 45259.6
1259366400 45290.6
1259452800 45301.6
1259539200 45317.6
1260316800 45450
1260748800 45525.6
1261180800 45601.7
1261267200 45624.1
1261785600 45707.2
1262217600 45781.9
1262563200 45837.1
1262649600 45856.2
1264896000 46244.3
1265587200 46359.2
1267228800 46633.1
1267315200 46651.9
1267488000 46678.8
1268006400 46768
1268092800 46783.8
1269129600 46946.4
1269993600 47101.9
1270252800 47149.2
1275782400 47866.4
1275868800 47875.1
1275955200 47884.7
1276041600 47899.4
1276473600 47957
1278201600 48180.9
1285200000 49161.6
1286496000 49387.2
1307232000 53160.7
1523192340 85457
1523257997 85461.1
1523295414 85462.1
1523381291 85465.5
1525417258 85679.7
1525453132 85680
1525501267 85682
1525504091 85682.3
1525521790 85682.5
1525671093 85690.4
1546693152 88329
1561203857 90091.3
1563780133 90316.4
1563786047 90316.5
1563869274 90324.7
1563951402 90335.4
1564040201 90342.9
1564471478 90377.6
1564558740 90386.3
1564647965 90392.1
1564654114 90392.3
1564816369 90408.5
1565256599 90453.2
1565260732 90453.4
1565347137 90459.9
1565354763 32351.7
1565433747 32355.7
1565440596 32356.6
1565512357 32361.8
1565603673 32372.1
[fz]
1198281600 53.371
1198368000 53.371
1198454400 53.371
1198540800 53.371
1198627200 53.371
1198800000 53.371
1198886400 53.371
1198972800 53.371
1199059200 53.371
1199145600 53.371
1199232000 53.371
1199318400 53.371
1199404800 53.371
1199491200 53.371
1199577600 53.371
1199664000 53.371
1199750400 53.371
1199836800 53.371
1199923200 53.371
1200009600 53.371
1200096000 53.371
1200182400 53.371
1200268800 53.371
1200700800 53.371
1200787200 53.371
1200873600 53.371
1200960000 53.371
1201046400 53.371
1201132800 53.371
1201219200 53.371
1201305600 53.371
1201392000 53.371
1201478400 53.371
1201564800 53.371
1201651200 53.371
1201737600 53.371
1201824000 53.371
1201910400 53.371
1201996800 53.371
1202083200 53.371
1202169600 53.371
1202256000 53.371
1202342400 53.371
1202428800 53.371
1202515200 53.371
1202601600 53.371
1202688000 53.371
1202774400 53.371
1202860800 53.371
1202947200 53.371
1203033600 53.371
1203120000 53.371
1203206400 53.371
1203292800 53.371
1203379200 53.371
1203465600 53.371
1203552000 53.371
1203638400 53.371
1203811200 53.371
1203897600 53.371
1204070400 53.371
1204156800 53.371
1204243200 53.371
1204416000 53.371
1204502400 53.371
1204588800 53.371
1204675200 53.371
1204761600 53.371
1204848000 53.371
1204934400 53.371
1205020800 53.371
1205107200 53.371
1205193600 53.371
1205280000 53.371
1205366400 53.371
1205539200 53.371
1205625600 53.371
1205712000 53.371
1205798400 53.371
1205884800 53.371
1205971200 53.371
1206057600 53.371
1206144000 53.371
1206316800 53.371
1206403200 53.371
1206489600 53.371
1206576000 53.371
1206662400 53.371
1206748800 53.371
1206835200 53.371
1206921600 53.371
1207008000 53.371
1207094400 53.371
1207180800 53.371
1207267200 53.371
1207353600 53.371
1207440000 53.371
1207526400 53.371
1207612800 53.371
1207699200 53.371
1207872000 53.371
1207958400 53.371
1208044800 53.371
1208131200 53.371
1208304000 53.371
1208390400 53.371
1208476800 53.371
1208563200 53.371
1208649600 53.371
1208736000 53.371
1208822400 53.371
1208908800 53.371
1208995200 53.371
1209081600 53.371
1209168000 53.371
1209254400 53.371
1209340800 53.371
1209427200 53.371
1209513600 53.371
1209600000 53.371
1209686400 53.371
1209772800 53.371
1209859200 53.371
1209945600 53.371
1210118400 53.371
1210204800 53.371
1210291200 53.371
1210464000 53.371
1210550400 53.371
1210636800 53.371
1210723200 53.371
1210809600 53.371
1210896000 53.371
1211068800 53.371
1211241600 53.402
1211328000 53.464
1211414400 53.57
1211500800 53.857
1211587200 54.271
1211673600 54.45
1211760000 54.646
1211846400 54.815
1211932800 54.939
1212192000 55.618
1212278400 55.956
1212364800 56.157
1212451200 56.157
1212624000 56.157
1212710400 56.157
1212883200 56.157
1212969600 56.157
1213142400 56.157
1213228800 56.157
1213401600 56.157
1213574400 56.157
1213660800 56.157
1213747200 56.157
1213833600 56.157
1214092800 56.157
1214179200 56.157
1214265600 56.157
1214438400 56.157
1214524800 56.157
1214697600 56.157
1214784000 56.157
1214870400 56.157
1214956800 56.327
1215043200 56.505
1215129600 56.595
1215475200 57.611
1215561600 57.706
1215648000 58.072
1215907200 58.807
1215993600 58.86
1216080000 58.966
1216166400 60.428
1216252800 63.526
1216339200 64.741
1216425600 65.242
1216512000 65.242
1216598400 65.242
1216684800 65.242
1216771200 65.242
1216857600 65.242
1216944000 65.651
1217116800 66.858
1217203200 67.089
1217289600 67.294
1217376000 68.169
1217462400 68.187
1217721600 68.187
1217808000 68.187
1217894400 68.187
1217980800 68.187
1218067200 68.341
1218153600 68.425
1218326400 68.425
1218412800 68.425
1218499200 68.425
1218585600 68.425
1218672000 68.437
1218758400 68.533
1218931200 68.826
1219017600 69.17
1219104000 69.287
1219190400 69.363
1219276800 70.074
1219363200 70.158
1219449600 70.167
1219536000 70.167
1219622400 70.167
1219708800 70.167
1219795200 70.167
1219968000 70.167
1220140800 71.071
1220227200 71.58
1220313600 71.711
1220400000 71.824
1220486400 71.824
1220572800 71.824
1220832000 71.824
1220918400 71.824
1221004800 71.824
1221091200 71.824
1221177600 71.824
1221264000 71.824
1221350400 71.824
1221436800 71.824
1221523200 71.824
1221609600 71.824
1221782400 71.824
1222300800 71.824
1222387200 71.984
1222560000 72.271
1222646400 72.435
1222732800 72.621
1222992000 72.624
1223164800 72.624
1223769600 72.624
1223856000 72.624
1223942400 72.624
1224028800 72.624
1224115200 72.624
1224201600 72.624
1224374400 72.624
1224460800 72.624
1224547200 72.624
1224633600 72.624
1224720000 72.624
1224806400 72.624
1224892800 72.624
1224979200 72.624
1225065600 72.624
1225152000 72.624
1225238400 72.624
1225324800 72.624
1225411200 72.624
1225584000 72.624
1225670400 72.624
1225756800 72.624
1225929600 72.624
1226102400 72.624
1226275200 72.624
1226448000 72.624
1226534400 72.624
1226620800 72.624
1226707200 72.624
1226793600 72.624
1226880000 72.624
1226966400 72.624
1227052800 72.624
1227139200 72.624
1227744000 72.624
1227830400 72.624
1227916800 72.624
1228003200 72.624
1228089600 72.624
1228176000 72.624
1228262400 72.624
1228348800 72.624
1228780800 72.624
1229385600 72.624
1229558400 72.624
1229644800 72.624
1230163200 72.624
1230249600 72.624
1230422400 72.624
1230508800 72.624
1230595200 72.624
1230681600 72.624
1230768000 72.624
1230854400 72.624
1230940800 72.624
1231027200 72.624
1231113600 72.624
1231200000 72.624
1231286400 72.624
1231372800 72.624
1231459200 72.624
1231545600 72.624
1231632000 72.624
1231718400 72.624
1231804800 72.624
1231891200 72.624
1231977600 72.624
1232064000 72.624
1232150400 72.624
1232236800 72.898
1232323200 72.982
1232409600 72.982
1232496000 72.982
1232582400 72.982
1232755200 72.982
1232841600 72.982
1232928000 72.982
1233014400 72.982
1233100800 72.982
1233187200 72.982
1233360000 72.982
1233446400 72.982
1233619200 72.982
1233792000 72.982
1234137600 72.982
1234224000 72.982
1234310400 72.982
1234396800 72.982
1234483200 72.982
1234742400 72.982
1234828800 72.982
1234915200 72.982
1235001600 72.982
1235260800 72.982
1235347200 72.982
1235520000 72.982
1235692800 72.982
1235865600 72.982
1235952000 72.982
1236038400 72.982
1236124800 72.982
1236384000 72.982
1236470400 72.982
1236556800 72.982
1236643200 72.982
1236988800 72.982
1237075200 72.982
1237161600 72.982
1237248000 72.982
1237334400 72.982
1237939200 72.982
1238025600 72.982
1238371200 72.982
1238457600 72.982
1238544000 72.982
1238630400 72.982
1238716800 72.982
1238803200 72.982
1238889600 72.982
1238976000 72.982
1239148800 72.982
1239235200 72.982
1239321600 72.982
1239408000 72.982
1239494400 72.982
1239580800 72.982
1239667200 72.982
1239753600 72.982
1240012800 72.982
1240099200 72.982
1240272000 72.982
1240358400 72.982
1240617600 72.982
1240704000 72.982
1240790400 72.982
1240876800 72.982
1240963200 72.982
1241395200 72.982
1241913600 72.982
1242518400 72.982
1242604800 72.982
1243814400 72.982
1245196800 72.982
1246233600 72.982
1246406400 72.982
1246752000 72.982
1247788800 72.982
1247875200 72.982
1248048000 72.982
1248739200 72.982
1248998400 72.982
1249257600 72.982
1249344000 72.982
1249516800 72.982
1249689600 72.982
1250208000 72.982
1250467200 72.982
1250726400 72.982
1251590400 74.017
1252972800 74.662
1254268800 74.814
1255478400 75.504
1255824000 75.504
1256169600 75.504
1256774400 76.111
1256947200 76.351
1257379200 76.498
1258329600 76.498
1258934400 76.498
1259193600 76.498
1259366400 76.498
1259452800 76.498
1259539200 76.498
1260316800 76.498
1260748800 76.498
1261180800 76.498
1261267200 76.498
1261785600 76.498
1262217600 76.498
1262563200 76.498
1262649600 76.498
1264896000 76.498
1265587200 76.498
1267228800 76.498
1267315200 76.498
1267488000 76.498
1268006400 76.498
1268092800 76.498
1269129600 76.498
1269993600 76.498
1270252800 76.498
1275782400 77.079
1275868800 77.079
1275955200 77.079
1276041600 77.079
1276473600 77.079
1278201600 77.588
1285200000 83.29
1286496000 83.29
1307232000 99.642
[gs]
941673600 548
949276800 1377.13
949622400 1419.16
1042761600 6558.68
1042934400 6574.22
1043712000 6652.66
1044057600 6694.38
1045180800 6831.34
1046304000 6831.34
1049500800 7171.51
1049760000 7187.61
1050278400 7222.37
1051228800 7255.1
1051401600 7258.69
1067558400 7258.69
1070755200 7923.16
1070841600 7926.16
1071878400 8032.44
1072137600 8085.39
1072828800 8131.08
1093132800 9195.99
1093392000 9201.79
1093996800 9210.32
1094083200 9211.18
1094342400 9215.73
1094515200 9216.86
1094774400 9218.65
1094947200 9120.06
1095033600 9222.64
1095120000 9224.03
1095292800 9229.12
1095379200 9232.59
1095552000 9234.55
1096502400 9269.17
1096934400 9282.6
1097107200 9282.81
1099180800 9375.04
1099440000 9384.33
1099526400 9386.28
1099612800 9389.43
1103500800 9680.23
1103673600 9699.91
1104451200 9769.87
1104796800 9806.55
1104883200 9809.39
1105142400 9831.28
1105228800 9838.88
1105574400 9867.65
1105920000 9893.88
1106870400 10006.3
1107216000 10047.8
1107561600 10082.4
1108339200 10082.4
1108771200 10082.4
1109289600 10261.7
1109635200 10300.3
1110153600 10358.8
1110326400 10384.2
1111017600 10421.8
1112227200 10485.8
1112486400 10490.3
1112918400 10490.3
1113523200 10535.7
1114128000 10554.5
1114732800 10581.6
1120176000 10676.7
1123200000 10710.8
1123804800 10727.6
1125187200 10747.7
1127433600 10780.9
1128038400 10791.5
1128297600 10796.9
1128729600 10803.9
1129420800 10823.1
1129939200 10825.7
1130112000 10837.7
1130198400 10847
1130630400 10857.9
1130716800 10861.7
1130976000 10871.9
1131062400 10875.9
1131235200 10882.7
1131321600 10891
1131753600 10917.9
1132185600 10949.5
1132531200 10982.4
1132876800 11015
1133481600 11073.9
1133654400 11090.9
1134172800 11140.3
1134777600 11189.6
1135728000 11282.4
1135814400 11290.5
1135900800 11301.4
1136073600 11319.9
1136160000 11336.3
1136246400 11340
1136332800 11355.4
1136419200 11368
1136505600 11375.7
1136592000 11383.9
1136678400 11391.6
1136764800 11403.1
1136851200 11412.1
1136937600 11423.7
1137024000 11433.8
1137110400 11441
1137196800 11450.5
1137283200 11460.6
1137369600 11475.8
1137456000 11485.5
1137542400 11493.4
1137628800 11502.5
1137715200 11511.8
1137888000 11531.4
1137974400 11542.4
1138060800 11556.3
1138147200 11569.3
1138233600 11579
1138320000 11589.4
1138406400 11599
1138492800 11612.6
1138579200 11625.9
1138665600 11634.3
1138752000 11645.3
1138838400 11654.2
1138924800 11666.2
1139011200 11678.8
1139097600 11687
1139184000 11698.6
1139270400 11705
1139356800 11713.9
1139443200 11722.7
1139529600 11733.3
1139616000 11745.2
1139702400 11752.1
1139788800 11764.5
1139875200 11772.8
1139961600 11780.8
1140220800 11804.2
1140307200 11810.7
1140393600 11818.1
1140480000 11827.2
1140566400 11835.9
1140739200 11855
1140825600 11862.3
1140998400 11886.5
1141084800 11897.2
1141171200 11906.3
1141344000 11926.5
1141516800 11946.8
1141603200 11956.6
1141689600 11964.3
1141776000 11973.5
1141948800 11991.1
1142035200 11998.4
1142121600 12006.3
1142208000 12016.5
1142294400 12026.1
1142380800 12033.5
1142553600 12054.7
1142640000 12061.2
1142726400 12067.5
1142812800 12076.8
1142899200 12083.1
1142985600 12088.6
1143158400 12101.6
1143244800 12108.3
1143590400 12124.7
1143763200 12137.5
1143849600 12141.4
1143936000 12146.4
1144022400 12152
1144108800 12157.9
1144454400 12178.8
1144540800 12182.6
1144627200 12188.3
1144713600 12193.9
1144972800 12214.6
1145059200 12219
1145145600 12226.9
1145232000 12231.6
1145318400 12235.3
1145577600 12241.7
1145664000 12241.7
1145750400 12244.2
1145836800 12245.2
1145923200 12245.2
1146009600 12246
1146096000 12249.2
1146182400 12250.8
1146268800 12250.8
1146355200 12254.3
1146441600 12255.1
1146528000 12256.6
1146787200 12256.6
1146873600 12257.9
1146960000 12259.3
1147046400 12261
1147132800 12261
1147392000 12263.5
1147478400 12264.1
1147564800 12267.4
1147651200 12268
1147737600 12268.1
1148083200 12273
1148169600 12273
1148256000 12275.9
1148342400 12276.7
1148428800 12278.6
1148860800 12288.8
1148947200 12290.4
1149206400 12296.8
1149638400 12304.2
1149724800 12304.2
1149811200 12305.2
1149897600 12306.9
1149984000 12307.7
1150070400 12308.3
1150156800 12310.1
1150416000 12311.8
1150502400 12311.8
1150588800 12312.8
1150675200 12314.4
1150761600 12315.4
1150848000 12316.8
1150934400 12316.8
1151020800 12316.8
1151107200 12317.9
1151193600 12318.7
1151280000 12320.3
1151366400 12320.3
1151452800 12320.3
1151625600 12321.1
1151798400 12322.7
1151884800 12323.8
1151971200 12324.2
1152144000 12326.6
1152230400 12327.5
1152316800 12327.5
1152403200 12330
1152576000 12330.9
1152748800 12331.5
1152835200 12332.2
1152921600 12332.2
1153008000 12333
1153094400 12334.5
1153180800 12335.3
1153353600 12336.1
1153612800 12337.7
1153785600 12339
1153872000 12341
1154217600 12341.2
1154304000 12342.4
1154563200 12345.2
1154995200 12347.2
1155600000 12357.8
1156032000 12360.8
1156118400 12362.9
1156204800 12363.7
1156291200 12363.7
1156464000 12365.5
1156636800 12366.3
1156723200 12368.1
1156809600 12368.9
1156896000 12370.7
1156982400 12372.1
1157068800 12372.1
1157155200 12373.2
1157241600 12373.6
1157328000 12375.2
1157414400 12375.7
1157587200 12377.5
1157673600 12377.5
1157760000 12378.4
1157846400 12379.6
1157932800 12380.7
1158019200 12381.7
1158105600 12383.3
1158278400 12384.2
1158364800 12384.2
1158710400 12388
1158796800 12389.1
1158883200 12389.1
1158969600 12391
1159056000 12392.2
1159142400 12393.4
1159228800 12393.4
1159315200 12394.6
1159488000 12396.6
1159574400 12397.9
1159833600 12401.6
1159920000 12402.9
1160006400 12406.3
1160092800 12407.3
1160265600 12412.3
1160352000 12416
1160438400 12416
1160524800 12416.9
1160611200 12418
1160870400 12423.5
1160956800 12427.1
1161043200 12428.6
1161129600 12430.3
1161216000 12436
1161302400 12437.5
1161475200 12440.8
1161561600 12443.6
1161820800 12450.4
1161993600 12452.4
1162080000 12457.2
1162166400 12460
1162252800 12460
1162339200 12465.7
1162425600 12476.1
1162771200 12503.5
1162944000 12514.1
1163030400 12520.4
1163116800 12526.5
1163289600 12540.4
1163462400 12554.1
1163548800 12555.5
1163635200 12558.3
1163808000 12565.4
1163980800 12578
1164067200 12584.1
1164153600 12592.4
1164499200 12609.5
1164672000 12623.5
1164931200 12645.4
1165104000 12659.1
1165190400 12664.6
1165536000 12688.8
1165708800 12699.9
1165795200 12708.4
1166054400 12730.7
1166313600 12755.4
1166486400 12773.2
1166659200 12787.6
1166918400 12813.6
1167523200 12882.2
1167696000 12897.6
1167782400 12902.9
1168041600 12922.4
1168128000 12930.2
1168214400 12937.4
1168300800 12943.8
1168387200 12947.3
1168732800 12968.2
1168819200 12977.7
1168905600 12984.5
1168992000 12993.6
1169078400 13000.5
1169164800 13005.9
1169337600 13016.9
1169424000 13026.5
1169510400 13035.3
1169596800 13044.8
1169683200 13055.6
1169769600 13065.7
1169856000 13076.8
1169942400 13084.9
1170028800 13094.5
1170115200 13100.1
1170201600 13106.6
1170288000 13113.2
1170374400 13119.1
1170460800 13129.4
1170547200 13136.7
1170633600 13145.2
1170720000 13152.3
1170806400 13161.6
1170892800 13170
1170979200 13176.9
1171065600 13187.3
1171152000 13194.2
1171238400 13201.1
1171324800 13205.9
1171411200 13217.5
1171497600 13216.4
1171584000 13220
1171670400 13226.5
1171756800 13232.9
1171843200 13243.5
1171929600 13250.8
1172016000 13255.3
1172102400 13259
1172188800 13263.6
1172275200 13269.7
1172361600 13275
1172448000 13281.8
1172534400 13288.3
1172620800 13294.5
1172707200 13298.4
1172966400 13314.9
1173052800 13320.9
1173139200 13325.9
1173225600 13330.1
1173312000 13335.3
1173398400 13340.9
1173484800 13344.1
1173571200 13346.9
1173657600 13350.4
1173744000 13354
1173830400 13355.8
1173916800 13358.6
1174003200 13362.3
1174089600 13367.3
1174176000 13373.9
1174262400 13380
1174348800 13383.5
1174435200 13389
1174521600 13401
1174608000 13410.8
1174780800 13424.8
1174867200 13428.5
1174953600 13431.1
1175040000 13433.3
1175126400 13437.2
1175212800 13442.9
1175299200 13448
1175385600 13451.5
1175472000 13455.7
1175558400 13455.7
1175644800 13461.3
1175731200 13464.7
1175817600 13468.2
1175970840 13470.8
1175990400 13474
1176076800 13477.4
1176163200 13480.3
1176422400 13489.9
1176508800 13490.7
1176595200 13491.2
1176681600 13492.3
1176768000 13492.3
1176854400 13494.7
1176940800 13496.6
1177027200 13499.1
1177113600 13502
1177200000 13503.4
1177286400 13504.1
1177372800 13506
1177459200 13507.1
1177545600 13507.1
1177632000 13507.1
1177718400 13508.3
1177804800 13509.6
1177891200 13510.1
1177977600 13510.7
1178064000 13512
1178150400 13513.3
1178236800 13514.5
1178409600 13516.3
1178582400 13519
1178668800 13520.4
1178755200 13521.3
1178841600 13522.7
1179014400 13525.2
1179187200 13527.5
1179446400 13536.1
1179532800 13537.4
1179619200 13537.4
1179705600 13538.1
1179792000 13540.1
1179878400 13540.1
1179964800 13540.6
1180224000 13541.9
1180310400 13542.4
1180569600 13544.9
1180656000 13545.4
1180742400 13547.1
1180828800 13547.1
1180915200 13547.8
1181001600 13548.9
1181088000 13550.1
1181174400 13550.2
1181260800 13550.8
1181347200 13552.1
1181433600 13552.8
1181692800 13555.1
1181952000 13557.3
1182124800 13561.1
1182211200 13562.3
1182297600 13563.1
1182643200 13566.7
1182729600 13567.7
1182902400 13569.8
1182988800 13571.2
1183075200 13571.5
1183161600 13572.2
1183248000 13573.5
1183507200 13577.4
1183680000 13578.3
1183766400 13578.3
1183852800 13579.3
1183939200 13580.5
1184025600 13581.5
1184112000 13582.4
1184198400 13583.1
1184371200 13583.1
1184457600 13584
1184544000 13586
1184630400 13586
1184803200 13586.8
1184976000 13589.2
1185062400 13589.2
1185148800 13590.3
1185235200 13592.3
1185321600 13592.9
1185408000 13592.9
1185580800 13594.2
1185667200 13594.7
1185753600 13595.4
1186012800 13598.3
1186099200 13599.2
1186185600 13599.2
1186272000 13600
1186358400 13601
1186444800 13601
1186704000 13602.6
1186876800 13602.6
1186963200 13603.7
1187049600 13603.7
1188086400 13613.5
1188259200 13615.3
1188345600 13616.3
1188432000 13616.3
1188604800 13619.6
1188691200 13620.8
1188777600 13621.7
1188950400 13624.7
1190246400 13663
1191110400 13695.2
1192060800 13721.4
1192406400 13735.4
1192492800 13738.7
1192752000 13753.7
1192924800 13764.9
1193011200 13773.3
1193443200 13803.1
1195603200 13965.7
1197331200 149.292
1198022400 219.479
1198108800 230.165
1198195200 242.795
1198281600 252.056
1198368000 262.216
1198454400 271.66
1198540800 286.147
1198627200 296.805
1198713600 305.555
1198800000 313.902
1198886400 321.005
1198972800 328.994
1199059200 339.129
1199145600 349.014
1199232000 359.413
1199318400 369.033
1199404800 378.227
1199491200 387.289
1199577600 396.566
1199664000 406.04
1199750400 414.929
1199836800 422.646
1199923200 430.931
1200009600 439.31
1200096000 446.565
1200182400 455.126
1200268800 463.793
1200700800 498.545
1200787200 503.747
1200873600 509.47
1200960000 515.201
1201046400 522.642
1201132800 528.986
1201219200 537.037
1201305600 543.16
1201392000 550.929
1201478400 557.323
1201564800 565.365
1201651200 571.548
1201737600 579.091
1201824000 587.317
1201910400 596.443
1201996800 605.019
1202083200 613.507
1202169600 621.963
1202256000 629.039
1202342400 636.355
1202428800 643.659
1202515200 649.862
1202601600 654.969
1202688000 662.101
1202774400 667.289
1202860800 672.898
1202947200 680.015
1203033600 688.245
1203120000 695.497
1203206400 702.999
1203292800 711.833
1203379200 720.723
1203465600 730.098
1203552000 739.605
1203638400 745.772
1203811200 756.677
1203897600 761.158
1204070400 768.9
1204156800 775.227
1204243200 781.92
1204416000 794.073
1204502400 798.988
1204588800 805.307
1204675200 813.871
1204761600 823.383
1204848000 830.048
1204934400 836.78
1205020800 842.648
1205107200 851.76
1205193600 859.154
1205280000 865.964
1205366400 873.449
1205539200 885.502
1205625600 890.153
1205712000 895.138
1205798400 903.846
1205884800 909.879
1205971200 915.777
1206057600 924.571
1206144000 933.927
1206316800 954.66
1206403200 964.228
1206489600 973.87
1206576000 982.188
1206662400 989.224
1206748800 995.501
1206835200 1000.21
1206921600 1000.21
1207008000 1004.34
1207094400 1008.06
1207180800 1015.09
1207267200 1021.62
1207353600 1029.3
1207440000 1037.49
1207526400 1048.51
1207612800 1054.73
1207699200 1062.67
1207872000 1076.87
1207958400 1081.45
1208044800 1086.2
1208131200 1091.83
1208304000 1102.87
1208390400 1106.58
1208476800 1110.43
1208563200 1116.49
1208649600 1122.75
1208736000 1124.31
1208822400 1128.64
1208908800 1130.69
1208995200 1133.09
1209081600 1136.22
1209168000 1136.25
1209254400 1138.87
1209340800 1141.44
1209427200 1143.67
1209513600 1145.65
1209600000 1147.32
1209686400 1148.46
1209772800 1150.69
1209859200 1150.69
1209945600 1152.57
1210118400 1154.29
1210204800 1154.29
1210291200 1155.06
1210464000 1155.98
1210550400 1157.68
1210636800 1159.26
1210723200 1159.26
1210809600 1160.3
1210896000 1160.3
1211068800 1162.02
1211241600 1163.87
1211328000 1163.87
1211414400 1165.03
1211500800 1169.6
1211587200 1170.39
1211673600 1170.39
1211760000 1171.97
1211846400 1172.71
1211932800 1173.3
1212192000 1174.8
1212278400 1176.2
1212364800 1176.2
1212451200 1177.13
1212624000 1177.13
1212710400 1178.3
1212883200 1178.94
1212969600 1180.6
1213142400 1183.01
1213228800 1184.31
1213401600 1184.31
1213574400 1186.72
1213660800 1187.8
1213747200 1187.8
1213833600 1189.39
1214092800 1191.12
1214179200 1192.06
1214265600 1193.32
1214438400 1194.52
1214524800 1195.19
1214697600 1196.27
1214784000 1197.59
1214870400 1197.59
1214956800 1198.33
1215043200 1198.55
1215129600 1199.45
1215475200 1203.71
1215561600 1203.71
1215648000 1205.17
1215907200 1207.07
1215993600 1207.67
1216080000 1208.43
1216166400 1209.79
1216252800 1211.03
1216339200 1211.03
1216425600 1212.1
1216512000 1212.9
1216598400 1212.9
1216684800 1214.82
1216771200 1214.82
1216857600 1214.82
1216944000 1216.05
1217116800 1216.76
1217203200 1217.23
1217289600 1218.33
1217376000 1219.18
1217462400 1219.19
1217721600 1220.52
1217808000 1221.94
1217894400 1222.26
1217980800 1222.26
1218067200 1223.86
1218153600 1224.46
1218326400 1225.82
1218412800 1226.33
1218499200 1226.33
1218585600 1227.18
1218672000 1227.18
1218758400 1227.98
1218931200 1229.79
1219017600 1231.01
1219104000 1231.43
1219190400 1231.98
1219276800 1234.65
1219363200 1235.2
1219449600 1235.2
1219536000 1235.91
1219622400 1237.38
1219708800 1237.38
1219795200 1238.1
1219968000 1239.18
1220140800 1241.53
1220227200 1242.48
1220313600 1243.22
1220400000 1244.35
1220486400 1244.35
1220572800 1245.12
1220832000 1247.92
1220918400 1247.92
1221004800 1250.01
1221091200 1250.01
1221177600 1250.85
1221264000 1252.19
1221350400 1252.69
1221436800 1253.91
1221523200 1256.36
1221609600 1261.03
1221782400 1263.85
1222300800 1283.67
1222387200 1284.78
1222560000 1287.75
1222646400 1290.25
1222992000 1312.53
1223164800 1320.13
1223769600 1320.93
1223856000 1324.84
1223942400 1331.57
1224028800 1336.73
1224115200 1341.71
1224201600 1345.25
1224374400 1355.58
1224460800 1361.2
1224547200 1364.88
1224633600 1369.1
1224720000 1373.53
1224806400 1377.86
1224892800 1382.58
1224979200 1389.11
1225065600 1394.91
1225152000 1401.4
1225238400 1409.47
1225324800 1415.97
1225411200 1423.38
1225584000 1436
1225670400 1441.57
1225756800 1445.84
1225929600 1455.46
1226102400 1466.24
1226275200 1478.22
1226448000 1488.47
1226534400 1494.88
1226620800 1501.39
1226707200 1507.44
1226793600 1513.31
1226880000 1520.95
1226966400 1527.2
1227052800 1534.64
1227139200 1541.42
1227744000 1605.57
1227830400 1614.55
1227916800 1624.03
1228003200 1631.54
1228089600 1640.69
1228176000 1647.04
1228262400 1657.06
1228348800 1665.36
1228780800 1709.3
1229385600 1771.37
1229558400 1791.72
1229644800 1800.58
1230163200 1843.59
1230249600 1851.91
1230422400 1873.82
1230508800 1884.42
1230595200 1893.69
1230681600 1904.67
1230768000 1916.65
1230854400 1927.47
1230940800 1937.11
1231027200 1947.75
1231113600 1959.22
1231200000 1970.71
1231286400 1986.57
1231372800 2002.24
1231459200 2013.42
1231545600 2026.88
1231632000 2041.07
1231718400 2055.46
1231804800 2066.02
1231891200 2081.46
1231977600 2094.23
1232064000 2105.19
1232150400 2116.22
1232236800 2124.04
1232323200 2132.59
1232409600 2140.37
1232496000 2147.49
1232582400 2157.01
1232755200 2173.48
1232841600 2184.39
1232928000 2196.43
1233014400 2206.39
1233100800 2218.09
1233187200 2225.77
1233360000 2244.46
1233446400 2253.38
1233619200 2279.21
1233792000 2290.31
1234137600 2326.38
1234224000 2335.33
1234310400 2343.55
1234396800 2353.57
1234483200 2363.42
1234742400 2392.77
1234828800 2402.82
1234915200 2414.19
1235001600 2423.52
1235260800 2451.06
1235347200 2459.64
1235520000 2476.7
1235692800 2491.41
1235865600 2506.41
1235952000 2516.61
1236038400 2522.3
1236124800 2529.2
1236384000 2551.23
1236470400 2557.06
1236556800 2565.59
1236643200 2575.3
1236988800 2604.69
1237075200 2609.9
1237161600 2616.72
1237248000 2622.25
1237334400 2627.12
1237939200 2681.65
1238025600 2690.66
1238371200 2719.65
1238457600 2726.24
1238544000 2733
1238630400 2737.67
1238716800 2740.66
1238803200 2743.32
1238889600 2744.85
1238976000 2745.83
1239148800 2750.98
1239235200 2751.42
1239321600 2753.31
1239408000 2753.31
1239494400 2755.07
1239580800 2757.43
1239667200 2759.42
1239753600 2760.57
1240012800 2767.28
1240099200 2768.22
1240272000 2772.8
1240358400 2773.97
1240617600 2778.92
1240704000 2779.89
1240790400 2784.88
1240876800 2788.71
1240963200 2792.28
1241395200 2800.53
1241913600 2814.09
1242518400 2837.57
1242604800 2837.57
1243814400 2854.93
1245196800 2891.51
1246233600 2909.24
1246406400 2910.64
1246752000 2914.07
1247788800 2930.91
1247875200 2932.39
1248048000 2933.65
1248739200 2943.17
1248998400 2945.98
1249257600 2945.98
1249344000 2947.15
1249516800 2949.59
1249689600 2950.65
1250208000 2957.24
1250467200 2959.85
1250726400 2961.1
1251590400 2970.54
1252972800 2994.25
1254268800 3013.99
1255478400 3064.89
1255824000 3092.85
1256169600 3123.11
1256774400 3163.38
1256947200 3174.6
1257379200 3210.45
1258329600 3285.73
1258934400 3331.59
1259193600 3348.77
1259366400 3361.72
1259452800 3369.09
1259539200 3375.53
1260316800 3444.17
1260748800 3484.82
1261180800 3543.35
1261267200 3559.43
1261785600 3620.17
1262217600 3671.85
1262563200 3713.5
1262649600 3726.54
1264896000 4018.38
1265587200 4099.64
1267228800 4289.81
1267315200 4297.27
1267488000 4314.96
1268006400 4369.14
1268092800 4380.77
1269129600 4469.57
1269993600 4523.81
1270252800 4540.54
1275782400 4765.6
1275868800 4767.51
1275955200 4768.74
1276041600 4770.26
1276473600 4775.59
1278201600 4803.93
1285200000 4935.86
1286496000 5003.58
1307232000 6601.515
[pv]
949276800 0
996105600 12.7
996364800 48
996451200 48.2
996537600 66.4
996710400 76.3
996796800 84.3
996883200 88
996969600 91.4
997056000 100.1
997228800 102.8
997401600 122.5
997660800 150.3
998179200 202.3
998524800 236.1
998697600 248.1
999129600 296.3
999216000 302.9
999993600 343.3
1000598400 362.7
1001030400 381.6
1001116800 388.2
1001203200 396.7
1001376000 400.4
1001635200 406.5
1001808000 422.3
1002153600 438.7
1002326400 446.5
1002499200 448.2
1002758400 467
1002844800 475.4
1003104000 490.5
1003276800 499.3
1003795200 519.3
1004313600 529.1
1004486400 535
1004572800 538.8
1004918400 557
1005004800 557.1
1005350400 566.9
1005782400 586.1
1006214400 592.5
1009324800 629.7
1009497600 630.5
1009756800 631
1009929600 632.9
1010102400 636.1
1010448000 646.3
1011052800 650.7
1011398400 651.9
1012176000 661.2
1012435200 673.2
1012608000 680.2
1012867200 691.1
1013040000 695
1013472000 702.5
1013731200 717.6
1014249600 742
1014940800 774.6
1016409600 871.8
1016841600 888.45
1017360000 955.7
1017964800 997.5
1018051200 1008.5
1018224000 1031.5
1018483200 1060.8
1018742400 1079.1
1019088000 1096.1
1019433600 1119.1
1020643200 1180
1020902400 1213
1020988800 1220
1021161600 1232.45
1021334400 1245.5
1021939200 1293.95
1022025600 1305
1022371200 1327.6
1022889600 1371.9
1022976000 1382.7
1023580800 1432.8
1023926400 1451.4
1024099200 1466.45
1024272000 1484.55
1024358400 1494.4
1024444800 1494.8
1024531200 1502.8
1024617600 1509.8
1024704000 1517.5
1024790400 1525.1
1024876800 1544.7
1024963200 1544.85
1025136000 1574.3
1025395200 1599.35
1025568000 1608.9
1026000000 1635.2
1026518400 1675.95
1027209600 1720.5
1027814400 1761.5
1028246400 1802.1
1028592000 1841.6
1029628800 1917.3
1029974400 1946.8
1030233600 1972.1
1030579200 1996.35
1030665600 2004.1
1030838400 2007.1
1030924800 2023.2
1031011200 2023.7
1031184000 2038.1
1031529600 2081.2
1032048000 2116
1033603200 2223.2
1034380800 2264.5
1034899200 2274.3
1035417600 2284.85
1035763200 2299
1036022400 2301
1038700800 2344
1041292800 2371.2
1041465600 2371.5
1041552000 2372.1
1041724800 2373.8
1041897600 2374.9
1042761600 2392.6
1042934400 2396.2
1043020800 2396
1043712000 2416.5
1044057600 2421.4
1044576000 2430.1
1045180800 2456.9
1045353600 2461.65
1046304000 2559
1046390400 2559
1046476800 2560.2
1046649600 2563.3
1046995200 2579.65
1047168000 2586.4
1047513600 2608.6
1047859200 2641.2
1048291200 2678.8
1048896000 2743.2
1049068800 2758.8
1049241600 2772
1049414400 2789.8
1049500800 2790.5
1049760000 2828.4
1050019200 2850.8
1050278400 2884.1
1050451200 2908.2
1050796800 2941.3
1051142400 2974.4
1051228800 2977.9
1051401600 2990.3
1051660800 3000
1051833600 3009.1
1052006400 3031.4
1052092800 3035.3
1052179200 3045.5
1052352000 3065
1052611200 3098.5
1052784000 3114.6
1053388800 3153.5
1061856000 3973.5
1062374400 4016.1
1062806400 4061.2
1063152000 4080.2
1063756800 4136
1064016000 4164
1064534400 4213.1
1064966400 4234.9
1065744000 4256.1
1066176000 4291.6
1066608000 4326.1
1067299200 4345.6
1067558400 4354
1067904000 4362.2
1068422400 4396.3
1068940800 4400.2
1069372800 4403
1069718400 4407.8
1070323200 4415
1070755200 4420
1070841600 4420.3
1070928000 4427.3
1071187200 4430.9
1071878400 4443.6
1072137600 4449.9
1072828800 4455.1
1074816000 4479.2
1074988800 4485.2
1075334400 4489.4
1075507200 4491.9
1075593600 4492.5
1076198400 4507
1076371200 4513.1
1076889600 4526.3
1077235200 4536.1
1077580800 4548.4
1077753600 4556.6
1078012800 4575.95
1078099200 4577
1078272000 4592.3
1078531200 4608
1078704000 4619.5
1079222400 4636.7
1079395200 4642.7
1079740800 4674.8
1079913600 4676.9
1080432000 4717.7
1080604800 4736
1080777600 4755.7
1080864000 4765.2
1081123200 4784.4
1081555200 4806.6
1081728000 4823.7
1081900800 4843.5
1082073600 4864.3
1084924800 5087
1085097600 5116.8
1085443200 5143.1
1085875200 5194
1086048000 5213.5
1086566400 5255.1
1087257600 5316.3
1088121600 5385.6
1088467200 5426.5
1088640000 5437.8
1088985600 5465.1
1089590400 5501.6
1090195200 5546
1091145600 5625.3
1091491200 5661.3
1091750400 5688.8
1092009600 5712.7
1092528000 5757.1
1093132800 5799
1093392000 5816.8
1093996800 5843.8
1094083200 5863.9
1094342400 5890
1094515200 5909.1
1094774400 5934.6
1094947200 5954.3
1095033600 5956.1
1095120000 5964.2
1095292800 5980.8
1095379200 5990.3
1095552000 5999.95
1096502400 6043.4
1096934400 6069.3
1097107200 6075
1097712000 6114.9
1099180800 6165.4
1099440000 6169.9
1099526400 6169.9
1099612800 6172.5
1103500800 6235.1
1103673600 6238.2
1104451200 6244.4
1104796800 6249.8
1104883200 6249.8
1105142400 6253
1105228800 6258.1
1105574400 6263.9
1105920000 6274.1
1106870400 6296.5
1107216000 6301.6
1107561600 6313.7
1108339200 6337
1108771200 6350
1109289600 6371.2
1109635200 6396.2
1110153600 6426.7
1110326400 6433.3
1111017600 6476.9
1112227200 6553.9
1112486400 6578.5
1112918400 6620.7
1113523200 6674.5
1114128000 6721.1
1114732800 6764.4
1114819200 6774
1114905600 6785.3
1115251200 6809.9
1115510400 6829.7
1116547200 6925.2
1117152000 6976.3
1117756800 7046.2
1120176000 7269.6
1123200000 7532.1
1123804800 7573
1125187200 7673.3
1127433600 7884.2
1128038400 7921.8
1128297600 7926
1128729600 7947.3
1129420800 8001
1129939200 8022.1
1130112000 8025.7
1130198400 8025.7
1130630400 8054.5
1130716800 8058.6
1130976000 8062.8
1131062400 8063.4
1131235200 8068.3
1131321600 8070.5
1131753600 8080.8
1132185600 8091.2
1132531200 8097
1132876800 8101.2
1133481600 8107.3
1133654400 8109.6
1134172800 8116
1134777600 8122.5
1135728000 8130.9
1135814400 8130.9
1135900800 8131
1136073600 8131.5
1136160000 8134.8
1136246400 8136
1136332800 8137.1
1136419200 8137.5
1136505600 8137.6
1136592000 8137.7
1136678400 8137.8
1136764800 8138.7
1136851200 8138.9
1136937600 8139
1137024000 8139.3
1137110400 8139.6
1137196800 8143.1
1137283200 8143.2
1137369600 8146.9
1137456000 8146.95
1137542400 8147.7
1137628800 8149.1
1137715200 8149.1
1137888000 8150.2
1137974400 8155
1138060800 8159.4
1138147200 8162.4
1138233600 8162.8
1138320000 8163.5
1138406400 8167.9
1138492800 8173.3
1138579200 8178.3
1138665600 8182.2
1138752000 8185.7
1138838400 8186.35
1138924800 8187.2
1139011200 8187.9
1139097600 8189.65
1139184000 8190.5
1139270400 8190.6
1139356800 8192
1139443200 8194
1139529600 8195
1139616000 8196.8
1139702400 8199.25
1139788800 8205.25
1139875200 8206.6
1139961600 8206.8
1140220800 8210.7
1140307200 8213.3
1140393600 8214.7
1140480000 8216.1
1140566400 8217.2
1140739200 8225.6
1140825600 8233.85
1140998400 8239.45
1141084800 8239.55
1141171200 8240.7
1141344000 8244.7
1141516800 8247.7
1141603200 8252
1141689600 8258.65
1141776000 8259.9
1141948800 8265
1142035200 8269.2
1142121600 8279
1142208000 8289.2
1142294400 8299.55
1142380800 8304
1142553600 8311.4
1142640000 8318.3
1142726400 8328.1
1142812800 8338.6
1142899200 8339.8
1142985600 8349.8
1143158400 8363.5
1143244800 8367.9
1143590400 8380.7
1143763200 8389.8
1143849600 8392.5
1143936000 8394.6
1144022400 8398.2
1144108800 8405.6
1144454400 8444.1
1144540800 8451.8
1144627200 8455.2
1144713600 8464.3
1144972800 8471.7
1145059200 8476.5
1145145600 8483.4
1145232000 8491.2
1145318400 8501.4
1145577600 8522.3
1145664000 8528.6
1145750400 8538.9
1145836800 8550
1145923200 8556.45
1146009600 8558.8
1146096000 8561.3
1146182400 8570.2
1146268800 8575.6
1146355200 8582.6
1146441600 8589.1
1146528000 8600.5
1146787200 8631
1146873600 8640.7
1146960000 8651.8
1147046400 8661.8
1147132800 8670.6
1147392000 8701.5
1147478400 8704.7
1147564800 8712.3
1147651200 8719.6
1147737600 8726.7
1148083200 8743.7
1148169600 8748.5
1148256000 8750.5
1148342400 8759.1
1148428800 8767.6
1148860800 8786.3
1148947200 8793.3
1149206400 8809.3
1149638400 8843.2
1149724800 8852.9
1149811200 8863.3
1149897600 8873.8
1149984000 8884.7
1150070400 8895.9
1150156800 8906.4
1150416000 8929.8
1150502400 8940.8
1150588800 8951.1
1150675200 8959.7
1150761600 8966.6
1150848000 8975.4
1150934400 8983.6
1151020800 8992.4
1151107200 9002.6
1151193600 9011.5
1151280000 9018.5
1151366400 9024.9
1151452800 9032.9
1151625600 9052.4
1151798400 9074.1
1151884800 9085
1151971200 9095.6
1152144000 9114.2
1152230400 9117.9
1152316800 9125.5
1152403200 9132.3
1152576000 9152.6
1152748800 9169.2
1152835200 9180.4
1152921600 9191.7
1153008000 9202.3
1153094400 9213.3
1153180800 9223.7
1153353600 9243.5
1153612800 9268.4
1153785600 9288.1
1153872000 9296.4
1154217600 9328.1
1154304000 9333.5
1154563200 9348.2
1154995200 9384.5
1155600000 9424.1
1156032000 9454.3
1156118400 9458.2
1156204800 9461.3
1156291200 9471
1156464000 9482.7
1156636800 9491.6
1156723200 9493
1156809600 9499.1
1156896000 9502.2
1156982400 9510.4
1157068800 9520.5
1157155200 9528
1157241600 9529.5
1157328000 9536.4
1157414400 9544.2
1157587200 9562.75
1157673600 9571.7
1157760000 9582.3
1157846400 9590.7
1157932800 9599.9
1158019200 9609.1
1158105600 9618.1
1158278400 9631.3
1158364800 9639.3
1158710400 9656.5
1158796800 9665.9
1158883200 9675
1158969600 9683.4
1159056000 9692
1159142400 9696.5
1159228800 9699.1
1159315200 9704.7
1159488000 9715.5
1159574400 9719.7
1159833600 9723.3
1159920000 9726.1
1160006400 9731.8
1160092800 9732.9
1160265600 9744.1
1160352000 9752.1
1160438400 9758.9
1160524800 9766.3
1160611200 9770.1
1160870400 9783.3
1160956800 9790.8
1161043200 9798.7
1161129600 9804.4
1161216000 9805.6
1161302400 9810.7
1161475200 9818.3
1161561600 9818.6
1161820800 9830.2
1161993600 9833.8
1162080000 9836.5
1162166400 9841.4
1162252800 9843.4
1162339200 9847.2
1162425600 9848.9
1162771200 9855.7
1162944000 9859.6
1163030400 9862.3
1163116800 9866.8
1163289600 9867.6
1163462400 9867.9
1163548800 9870.9
1163635200 9875
1163808000 9877.4
1163980800 9879.2
1164067200 9879.8
1164153600 9881.3
1164499200 9884.5
1164672000 9887.9
1164931200 9889.2
1165104000 9892.1
1165190400 9892.3
1165536000 9895.5
1165708800 9897.1
1165795200 9897.2
1166054400 9899.7
1166313600 9903.8
1166486400 9905.2
1166659200 9906.6
1166918400 9910.7
1167523200 9918
1167696000 9919.8
1167782400 9921.1
1168041600 9921.6
1168128000 9923.5
1168214400 9923.7
1168300800 9923.8
1168387200 9926.05
1168732800 9931.2
1168819200 9934.8
1168905600 9935.4
1168992000 9935.4
1169078400 9935.5
1169164800 9938.05
1169337600 9941.7
1169424000 9942.9
1169510400 9945.8
1169596800 9947.2
1169683200 9950.2
1169769600 9951.3
1169856000 9951.7
1169942400 9952.1
1170028800 9953.4
1170115200 9954.3
1170201600 9955.4
1170288000 9959.6
1170374400 9960.2
1170460800 9962.8
1170547200 9963.5
1170633600 9963.8
1170720000 9965.7
1170806400 9966.6
1170892800 9967.05
1170979200 9968.9
1171065600 9969.3
1171152000 9969.7
1171238400 9970.2
1171324800 9972.4
1171411200 9973.1
1171497600 9978.6
1171584000 9984.8
1171670400 9990.9
1171756800 9997.1
1171843200 9997.5
1171929600 9999.05
1172016000 10000.2
1172102400 10006
1172188800 10011
1172275200 10011.8
1172361600 10014.2
1172448000 10015.8
1172534400 10016.8
1172620800 10019.6
1172707200 10020.9
1172966400 10036.9
1173052800 10041.1
1173139200 10046.2
1173225600 10048.7
1173312000 10054.1
1173398400 10058.8
1173484800 10068.4
1173571200 10078.1
1173657600 10088.3
1173744000 10097.8
1173830400 10106.2
1173916800 10116.1
1174003200 10124.9
1174089600 10125.4
1174176000 10126.1
1174262400 10130.9
1174348800 10137.1
1174435200 10142.8
1174521600 10143.9
1174608000 10145.2
1174780800 10153.3
1174867200 10163.7
1174953600 10174
1175040000 10184.2
1175126400 10192.2
1175212800 10200.5
1175299200 10204.7
1175385600 10214.4
1175472000 10224.3
1175558400 10232.8
1175644800 10240.6
1175731200 10250.1
1175817600 10260.7
1175970840 10266.1
1175990400 10277.3
1176076800 10288.1
1176163200 10293.8
1176422400 10322.5
1176508800 10333.3
1176595200 10344.1
1176681600 10354.6
1176768000 10363.8
1176854400 10370.2
1176940800 10381.8
1177027200 10392.3
1177113600 10403.3
1177200000 10414.8
1177286400 10425.8
1177372800 10433.9
1177459200 10444.1
1177545600 10455.4
1177632000 10466.1
1177718400 10476.8
1177804800 10486.6
1177891200 10498.4
1177977600 10509.6
1178064000 10521.6
1178150400 10532.8
1178236800 10542.9
1178409600 10560.1
1178582400 10568.5
1178668800 10571.1
1178755200 10578.6
1178841600 10582.6
1179014400 10595.5
1179187200 10600.8
1179446400 10615.2
1179532800 10620.9
1179619200 10630.9
1179705600 10641.8
1179792000 10651.8
1179878400 10661.9
1179964800 10672.4
1180224000 10699.5
1180310400 10700.9
1180569600 10718.1
1180656000 10722.9
1180742400 10731.8
1180828800 10738.9
1180915200 10748
1181001600 10758.9
1181088000 10769.1
1181174400 10779.8
1181260800 10790.2
1181347200 10798.7
1181433600 10808.3
1181692800 10830.1
1181952000 10852.3
1182124800 10867.2
1182211200 10877.4
1182297600 10885.6
1182643200 10905.3
1182729600 10910.3
1182902400 10920.2
1182988800 10926.3
1183075200 10929.7
1183161600 10935.5
1183248000 10942.2
1183507200 10958.9
1183680000 10969.4
1183766400 10978.7
1183852800 10989.6
1183939200 10995.4
1184025600 11001.8
1184112000 11009.4
1184198400 11014.3
1184371200 11028.8
1184457600 11039.3
1184544000 11050.3
1184630400 11058.8
1184803200 11070.5
1184976000 11082.1
1185062400 11091.1
1185148800 11094.6
1185235200 11097.7
1185321600 11106.1
1185408000 11116.2
1185580800 11127.1
1185667200 11129.6
1185753600 11137.3
1186012800 11159.2
1186099200 11168.9
1186185600 11179.7
1186272000 11190.8
1186358400 11201.4
1186444800 11202.9
1186704000 11204.6
1186876800 11226.8
1186963200 11233.7
1187049600 11242.8
1188086400 11324.7
1188259200 11339.6
1188345600 11349.6
1188432000 11360.2
1188604800 11367.4
1188691200 11370.3
1188777600 11372.1
1188950400 11387.7
1190246400 11471.3
1191110400 11528.2
1192060800 11592.9
1192406400 11618.1
1192492800 11625.6
1192752000 11637.9
1192924800 11647.4
1193011200 11655.4
1193443200 11665.5
1195603200 11702.5
1197331200 11725.1
1198022400 11742.4
1198108800 11746.9
1198195200 11749.8
1198281600 11750
1198368000 11750.4
1198454400 11750.5
1198540800 11750.9
1198627200 11751
1198713600 11751
1198800000 11751.2
1198886400 11751.3
1198972800 11751.8
1199059200 11753.3
1199145600 11753.7
1199232000 11755.1
1199318400 11756.6
1199404800 11759.4
1199491200 11759.5
1199577600 11762.7
1199664000 11764.2
1199750400 11766
1199836800 11766.5
1199923200 11767.1
1200009600 11768
1200096000 11768.4
1200182400 11769.4
1200268800 11770.1
1200700800 11773.6
1200787200 11774.1
1200873600 11775.6
1200960000 11780.6
1201046400 11783.3
1201132800 11783.8
1201219200 11789.4
1201305600 11791.9
1201392000 11792
1201478400 11792.4
1201564800 11793.8
1201651200 11794.9
1201737600 117596
1201824000 117596
1201910400 117598
1201996800 11804.2
1202083200 11805
1202169600 11805.2
1202256000 11809.5
1202342400 11815.8
1202428800 11822.8
1202515200 11829.9
1202601600 11836.3
1202688000 11843.1
1202774400 11850.1
1202860800 11854.1
1202947200 11855.1
1203033600 11862
1203120000 11870.8
1203206400 11879
1203292800 11887.5
1203379200 11895.7
1203465600 11896.7
1203552000 11898.7
1203638400 11900
1203811200 11913.1
1203897600 11919.2
1204070400 11924.7
1204156800 11928.5
1204243200 11930.5
1204416000 11942.5
1204502400 11943.7
1204588800 11945.7
1204675200 11952.9
1204761600 11955.1
1204848000 11956.8
1204934400 11961.8
1205020800 11964.8
1205107200 11969.7
1205193600 11971.3
1205280000 11977.8
1205366400 11984.6
1205539200 11992.4
1205625600 11994.5
1205712000 11997
1205798400 12005.8
1205884800 12012.2
1205971200 12017
1206057600 12018.8
1206144000 12021.7
1206316800 12029.9
1206403200 12038.8
1206489600 12040.4
1206576000 12042.1
1206662400 12048.5
1206748800 12054.8
1206835200 12064.6
1206921600 12068.5
1207008000 12078.9
1207094400 12079.9
1207180800 12084
1207267200 12086.6
1207353600 12088.3
1207440000 12092
1207526400 12093
1207612800 12098.4
1207699200 12101.3
1207872000 12105.9
1207958400 12115.7
1208044800 12120.6
1208131200 12122.9
1208304000 12134.4
1208390400 12141.7
1208476800 12151.4
1208563200 12152.8
1208649600 12160
1208736000 12166.6
1208822400 12168.7
1208908800 12179.7
1208995200 12185.4
1209081600 12193.1
1209168000 12202.2
1209254400 12211.3
1209340800 12218.9
1209427200 12227.7
1209513600 12236.2
1209600000 12246.2
1209686400 12253.7
1209772800 12265
1209859200 12275.3
1209945600 12285
1210118400 12306.9
1210204800 12318.3
1210291200 12329.5
1210464000 12352.4
1210550400 12363.5
1210636800 12374.1
1210723200 12384.9
1210809600 12392.6
1210896000 12398.5
1211068800 12411
1211241600 12426.9
1211328000 12433.4
1211414400 12440
1211500800 12449.9
1211587200 12459.1
1211673600 12467.5
1211760000 12471.3
1211846400 12480.2
1211932800 12487.4
1212192000 12505.4
1212278400 12513.5
1212364800 12522.8
1212451200 12530.1
1212624000 12545
1212710400 12553.8
1212883200 12571.7
1212969600 12582.2
1213142400 12602.8
1213228800 12609.2
1213401600 12622
1213574400 12637.3
1213660800 12647.8
1213747200 12657.9
1213833600 12667.7
1214092800 12690.7
1214179200 12702.3
1214265600 12712.8
1214438400 12726.7
1214524800 12731.9
1214697600 12747.8
1214784000 12758.9
1214870400 12769.6
1214956800 12780.1
1215043200 12782.8
1215129600 12792.4
1215475200 12821.9
1215561600 12829.2
1215648000 12839.9
1215907200 12854.3
1215993600 12861.6
1216080000 12871.8
1216166400 12879.1
1216252800 12885.1
1216339200 12888.5
1216425600 12893.3
1216512000 12902.8
1216598400 12907.1
1216684800 12911.7
1216771200 12922.1
1216857600 12931.1
1216944000 12940.4
1217116800 12955.6
1217203200 12965.3
1217289600 12972
1217376000 12981.7
1217462400 12991.2
1217721600 13012.8
1217808000 13021.1
1217894400 13030.7
1217980800 13041.3
1218067200 13049.5
1218153600 13054.9
1218326400 13069.8
1218412800 13076.1
1218499200 13077.1
1218585600 13082.9
1218672000 13093.4
1218758400 13096.9
1218931200 13115.4
1219017600 13121.9
1219104000 13123.3
1219190400 13128.6
1219276800 13136.3
1219363200 13141.6
1219449600 13147.8
1219536000 13154.2
1219622400 13158.2
1219708800 13162.7
1219795200 13173.2
1219968000 13180.5
1220140800 13199.6
1220227200 13206.2
1220313600 13213.8
1220400000 13215
1220486400 13218.7
1220572800 13223.4
1220832000 13237.3
1220918400 13247.7
1221004800 13252.7
1221091200 13260.2
1221177600 13261
1221264000 13262.1
1221350400 13271.4
1221436800 13275.1
1221523200 13278.6
1221609600 13286.2
1221782400 13304.6
1222300800 13322.1
1222387200 13336.1
1222560000 13355.2
1222646400 13359.4
1222732800 13360.2
1222992000 13373.1
1223164800 13380.3
1223769600 13401.7
1223856000 13403.9
1223942400 13407.7
1224028800 13408.7
1224115200 13409.3
1224201600 13413.7
1224374400 13427.1
1224460800 13435
1224547200 13437.3
1224633600 13438.7
1224720000 13441.1
1224806400 13446.4
1224892800 13452.8
1224979200 13454.7
1225065600 13455.4
1225152000 13456.9
1225238400 13459.5
1225324800 13460.4
1225411200 13461.5
1225584000 13468
1225670400 13468.7
1225756800 13474.6
1225929600 13476.2
1226102400 13481.5
1226275200 13481.9
1226448000 13484.1
1226534400 13485.7
1226620800 13487
1226707200 13487.4
1226793600 13488
1226880000 13491.4
1226966400 13492.8
1227052800 13493.5
1227139200 13493.6
1227744000 13499.4
1227830400 13500.1
1227916800 13501.7
1228003200 13503
1228089600 13503.7
1228176000 13504.2
1228262400 13504.2
1228348800 13504.3
1228780800 13507.3
1229385600 13515.4
1229558400 13517.5
1229644800 13518.1
1230163200 13524.9
1230249600 13529
1230422400 13533.5
1230508800 13537.4
1230595200 13541
1230681600 13544.3
1230768000 13545.3
1230854400 13545.9
1230940800 13550.1
1231027200 13550.3
1231113600 13550.4
1231200000 13550.7
1231286400 13551.7
1231372800 13552.9
1231459200 13557.4
1231545600 13561.9
1231632000 13565.4
1231718400 13568.6
1231804800 13572
1231891200 13572.4
1231977600 13574.9
1232064000 13576.2
1232150400 13576.6
1232236800 13576.6
1232323200 13576.7
1232409600 13578.2
1232496000 13580.2
1232582400 13582.9
1232755200 13586.9
1232841600 13588.3
1232928000 13593.5
1233014400 13594.5
1233100800 13596.1
1233187200 13601.6
1233360000 13604.7
1233446400 13606.3
1233619200 13613.8
1233792000 13617.1
1234137600 13620.9
1234224000 13621.1
1234310400 13624.2
1234396800 13629
1234483200 13631.9
1234742400 13644.4
1234828800 13645.4
1234915200 13653.1
1235001600 13660.2
1235260800 13662.2
1235347200 13663.9
1235520000 13672.3
1235692800 13674.6
1235865600 13680.6
1235952000 13681.5
1236038400 13689.7
1236124800 13696.7
1236384000 13709.1
1236470400 13709.6
1236556800 13712.1
1236643200 13712.9
1236988800 13729.2
1237075200 13731.7
1237161600 13733.4
1237248000 13738
1237334400 13746
1237939200 13781.7
1238025600 13783.5
1238371200 13803.7
1238457600 13814.8
1238544000 13826.1
1238630400 13836.8
1238716800 13847.1
1238803200 13853.9
1238889600 13861.9
1238976000 13871.3
1239148800 13887.4
1239235200 13895.3
1239321600 13905.5
1239408000 13915.8
1239494400 13924.2
1239580800 13935
1239667200 13945.5
1239753600 13955.1
1240012800 13965.3
1240099200 13976.9
1240272000 13999.1
1240358400 14008.3
1240617600 14036.8
1240704000 14045.9
1240790400 14051.2
1240876800 14053.3
1240963200 14057.9
1241395200 14093
1241913600 14131.7
1242518400 14162
1242604800 14170.4
1243814400 14295.9
1245196800 14412.8
1246233600 14504.9
1246406400 14520.2
1246752000 14557
1247788800 14630.3
1247875200 14635.7
1248048000 14646
1248739200 14712.5
1248998400 14739.3
1249257600 14758.7
1249344000 14769.5
1249516800 14790.3
1249689600 14804.2
1250208000 14841.1
1250467200 14870.1
1250726400 14900.5
1251590400 14979.9
1252972800 15083.2
1254268800 15176.2
1255478400 15233.9
1255824000 15247.7
1256169600 15269.1
1256774400 15281.2
1256947200 15290.4
1257379200 15297.3
1258329600 15303.6
1258934400 15315.4
1259193600 15322.3
1259366400 15323.4
1259452800 15324.9
1259539200 15325.2
1260316800 15334
1260748800 15338
1261180800 15344.2
1261267200 15344.5
1261785600 15348.9
1262217600 15351.5
1262563200 15355.8
1262649600 15357.5
1264896000 15367.9
1265587200 15377.1
1267228800 15418.1
1267315200 15419
1267488000 15428.9
1268006400 15478.8
1268092800 15489.1
1269129600 15547.8
1269993600 15599.7
1270252800 15618.8
1275782400 16081.5
1275868800 16091.2
1275955200 16099.5
1276041600 16108.9
1276473600 16151
1278201600 16332.2
1285200000 16895.1
1286496000 16946.2
1307232000 18022.1
1565256604 32340.8
1565347137 32350.2
[sp]
941673600 10
949276800 15.21
949622400 16.34
1072828800 154.28
1103500800 187.645
1103673600 187.84
1104451200 189.14
1105228800 190.093
1105574400 190.496
1105920000 190.849
1134172800 219
1137283200 220
1137369600 220.47
1137456000 220.95
1137888000 222
1137974400 222.46
1138060800 222.701
1138233600 223.565
1138406400 223.701
1138492800 223.933
1138579200 224.195
1138665600 224.24
1138752000 224.405
1138838400 224.524
1138924800 224.848
1139011200 225.173
1139097600 225.234
1139184000 225.39
1139270400 225.401
1139356800 225.414
1139443200 225.856
1139529600 226.01
1139616000 226.114
1139702400 226.197
1139788800 226.311
1139875200 226.492
1139961600 226.641
1140220800 226.987
1140307200 227.087
1140393600 227.221
1140480000 227.355
1140566400 227.469
1140739200 227.627
1140825600 227.734
1140998400 228.044
1141084800 228.142
1141171200 228.425
1141344000 228.745
1141516800 229.063
1141603200 229.289
1141689600 229.432
1141776000 229.624
1141948800 230.049
1142035200 230.304
1142121600 230.528
1142208000 230.9
1142294400 231.099
1142380800 231.325
1142553600 231.672
1142640000 231.858
1142726400 232.065
1142812800 232.327
1142899200 232.47
1142985600 232.654
1143158400 233.105
1143244800 233.295
1143590400 233.77
1143763200 234.094
1143849600 234.202
1143936000 234.383
1144022400 234.481
1144108800 234.621
1144454400 235.224
1144540800 235.36
1144627200 235.544
1144713600 235.742
1144972800 236.316
1145059200 236.468
1145145600 236.787
1145232000 236.915
1145318400 237.008
1145577600 237.36
1145664000 237.453
1145750400 237.596
1145836800 237.776
1145923200 237.909
1146009600 238.003
1146096000 238.245
1146182400 238.402
1146268800 238.57
1146355200 238.704
1146441600 238.845
1146528000 238.986
1146787200 239.35
1146873600 239.473
1146960000 239.633
1147046400 239.778
1147132800 239.989
1147392000 240.344
1147478400 240.53
1147564800 240.699
1147651200 240.838
1147737600 240.923
1148083200 241.391
1148169600 241.662
1148256000 241.782
1148342400 241.97
1148428800 242.09
1148860800 242.952
1148947200 243.05
1149206400 243.433
1149638400 244.304
1149724800 244.499
1149811200 244.687
1149897600 244.699
1149984000 244.995
1150070400 245.173
1150156800 245.292
1150416000 245.691
1150502400 245.819
1150588800 246.007
1150675200 246.16
1150761600 246.28
1150848000 246.426
1150934400 246.596
1151020800 246.8
1151107200 246.892
1151193600 247.026
1151280000 247.163
1151366400 247.28
1151452800 247.411
1151625600 247.704
1151798400 247.959
1151884800 248.119
1151971200 248.363
1152144000 248.637
1152230400 248.812
1152316800 248.859
1152403200 249.119
1152576000 249.359
1152748800 249.651
1152835200 249.807
1152921600 249.934
1153008000 250.16
1153094400 250.243
1153180800 250.408
1153353600 250.677
1153612800 250.996
1153785600 251.335
1153872000 251.48
1154217600 251.548
1154304000 251.715
1154563200 252.225
1154995200 253.112
1155600000 253.996
1156032000 254.732
1156118400 254.849
1156204800 255.024
1156291200 255.144
1156464000 255.449
1156636800 255.715
1156723200 255.804
1156809600 255.93
1156896000 256.097
1156982400 256.208
1157068800 256.378
1157155200 256.551
1157241600 256.692
1157328000 256.917
1157414400 257.034
1157587200 257.429
1157673600 257.519
1157760000 257.601
1157846400 257.712
1157932800 257.829
1158019200 257.969
1158105600 258.118
1158278400 258.409
1158364800 258.542
1158710400 259.087
1158796800 259.209
1158883200 259.311
1158969600 259.481
1159056000 259.61
1159142400 259.757
1159228800 259.874
1159315200 259.969
1159488000 260.292
1159574400 260.419
1159833600 260.758
1159920000 260.86
1160006400 261.069
1160092800 261.193
1160265600 261.395
1160352000 261.507
1160438400 261.655
1160524800 261.79
1160611200 261.993
1160870400 262.214
1160956800 262.474
1161043200 262.639
1161129600 262.72
1161216000 262.859
1161302400 262.971
1161475200 263.185
1161561600 263.309
1161820800 263.608
1161993600 263.693
1162080000 263.817
1162166400 263.991
1162252800 264.084
1162339200 264.209
1162425600 264.348
1162771200 264.774
1162944000 265.147
1163030400 265.474
1163116800 265.63
1163289600 265.794
1163462400 266.145
1163548800 266.278
1163635200 266.429
1163808000 266.602
1163980800 266.812
1164067200 266.921
1164153600 267.105
1164499200 267.552
1164672000 267.823
1164931200 268.224
1165104000 268.371
1165190400 268.549
1165536000 268.916
1165708800 269.153
1165795200 269.27
1166054400 269.651
1166313600 269.934
1166486400 270.204
1166659200 270.411
1166918400 270.829
1167523200 271.658
1167696000 271.962
1167782400 272.07
1168041600 272.371
1168128000 272.525
1168214400 272.63
1168300800 272.739
1168387200 272.885
1168732800 273.423
1168819200 273.534
1168905600 273.67
1168992000 273.82
1169078400 273.902
1169164800 274.034
1169337600 274.291
1169424000 274.479
1169510400 274.536
1169596800 274.652
1169683200 274.794
1169769600 274.916
1169856000 275.05
1169942400 275.173
1170028800 275.309
1170115200 275.455
1170201600 275.634
1170288000 275.814
1170374400 276.057
1170460800 276.188
1170547200 276.36
1170633600 276.489
1170720000 276.66
1170806400 276.789
1170892800 276.905
1170979200 277.076
1171065600 277.21
1171152000 277.264
1171238400 277.428
1171324800 277.55
1171411200 277.903
1171497600 278.064
1171584000 278.214
1171670400 278.433
1171756800 278.531
1171843200 278.719
1171929600 278.831
1172016000 279.014
1172102400 279.187
1172188800 279.283
1172275200 279.449
1172361600 279.547
1172448000 279.709
1172534400 279.834
1172620800 280.039
1172707200 280.181
1172966400 280.575
1173052800 280.743
1173139200 280.861
1173225600 281.001
1173312000 281.242
1173398400 281.52
1173484800 281.669
1173571200 281.795
1173657600 281.93
1173744000 282.037
1173830400 282.171
1173916800 282.291
1174003200 282.414
1174089600 282.537
1174176000 282.675
1174262400 282.809
1174348800 282.973
1174435200 283.063
1174521600 283.258
1174608000 283.555
1174780800 283.664
1174867200 283.807
1174953600 283.922
1175040000 284.052
1175126400 284.168
1175212800 284.271
1175299200 284.389
1175385600 284.478
1175472000 284.647
1175558400 284.779
1175644800 284.911
1175731200 285.041
1175817600 285.139
1175970840 285.258
1175990400 285.421
1176076800 285.552
1176163200 285.69
1176422400 286.276
1176508800 286.381
1176595200 286.522
1176681600 286.663
1176768000 286.806
1176854400 286.955
1176940800 287.134
1177027200 287.315
1177113600 287.594
1177200000 287.787
1177286400 288.011
1177372800 288.224
1177459200 288.389
1177545600 288.55
1177632000 288.665
1177718400 288.8
1177804800 288.957
1177891200 289.111
1177977600 289.228
1178064000 289.353
1178150400 289.508
1178236800 289.627
1178409600 289.934
1178582400 290.202
1178668800 290.318
1178755200 290.46
1178841600 290.602
1179014400 290.954
1179187200 291.239
1179446400 291.671
1179532800 291.763
1179619200 291.91
1179705600 292.048
1179792000 292.237
1179878400 292.404
1179964800 292.532
1180224000 292.886
1180310400 293.013
1180569600 293.371
1180656000 293.5
1180742400 293.61
1180828800 293.701
1180915200 293.813
1181001600 293.919
1181088000 294.087
1181174400 294.187
1181260800 294.329
1181347200 294.447
1181433600 294.553
1181692800 294.991
1181952000 295.368
1182124800 295.636
1182211200 295.725
1182297600 295.835
1182643200 296.45
1182729600 296.59
1182902400 296.811
1182988800 296.985
1183075200 297.076
1183161600 297.2
1183248000 297.3
1183507200 297.671
1183680000 297.942
1183766400 298.083
1183852800 298.207
1183939200 298.33
1184025600 298.478
1184112000 298.618
1184198400 298.76
1184371200 298.973
1184457600 299.112
1184544000 299.327
1184630400 299.475
1184803200 299.58
1184976000 299.885
1185062400 300.039
1185148800 300.209
1185235200 300.341
1185321600 300.445
1185408000 300.605
1185580800 300.847
1185667200 301.038
1185753600 301.174
1186012800 301.758
1186099200 301.943
1186185600 302.109
1186272000 302.275
1186358400 302.416
1186444800 302.58
1186704000 302.953
1186876800 303.002
1186963200 303.166
1187049600 303.309
1188086400 305.214
1188259200 305.504
1188345600 305.634
1188432000 305.75
1188604800 306.151
1188691200 306.294
1188777600 306.433
1188950400 306.618
1190246400 308.866
1191110400 310.847
1192060800 312.401
1192406400 312.989
1192492800 313.213
1192752000 313.656
1192924800 313.84
1193011200 313.998
1193443200 314.442
1195603200 318.258
1197331200 320.622
1198022400 321.556
1198108800 321.659
1198195200 321.799
1198281600 321.918
1198368000 322.04
1198454400 322.229
1198540800 322.364
1198627200 322.495
1198713600 322.624
1198800000 322.757
1198886400 322.837
1198972800 322.995
1199059200 323.119
1199145600 323.234
1199232000 323.347
1199318400 323.412
1199404800 323.553
1199491200 323.704
1199577600 323.927
1199664000 324.073
1199750400 324.218
1199836800 324.384
1199923200 324.515
1200009600 324.666
1200096000 324.796
1200182400 324.965
1200268800 325.112
1200700800 325.712
1200787200 325.818
1200873600 325.972
1200960000 326.097
1201046400 326.233
1201132800 326.377
1201219200 326.522
1201305600 326.709
1201392000 326.826
1201478400 326.917
1201564800 327.047
1201651200 327.15
1201737600 327.277
1201824000 327.411
1201910400 327.548
1201996800 327.69
1202083200 327.797
1202169600 327.915
1202256000 328.037
1202342400 328.257
1202428800 328.403
1202515200 328.531
1202601600 328.736
1202688000 328.86
1202774400 328.955
1202860800 329.074
1202947200 329.195
1203033600 329.396
1203120000 329.541
1203206400 329.654
1203292800 329.911
1203379200 329.932
1203465600 330.041
1203552000 330.174
1203638400 330.265
1203811200 330.531
1203897600 330.664
1204070400 330.924
1204156800 331.072
1204243200 331.264
1204416000 331.496
1204502400 331.69
1204588800 331.801
1204675200 331.899
1204761600 332.027
1204848000 332.144
1204934400 332.27
1205020800 332.374
1205107200 332.525
1205193600 332.673
1205280000 332.794
1205366400 332.959
1205539200 333.212
1205625600 333.351
1205712000 333.465
1205798400 333.638
1205884800 333.782
1205971200 333.899
1206057600 334.067
1206144000 334.248
1206316800 334.517
1206403200 334.632
1206489600 334.74
1206576000 334.875
1206662400 335.005
1206748800 335.143
1206835200 335.234
1206921600 335.338
1207008000 335.482
1207094400 335.591
1207180800 335.75
1207267200 335.885
1207353600 335.998
1207440000 336.134
1207526400 336.373
1207612800 336.461
1207699200 336.573
1207872000 336.829
1207958400 336.964
1208044800 337.082
1208131200 337.261
1208304000 337.529
1208390400 337.639
1208476800 337.793
1208563200 337.932
1208649600 338.093
1208736000 338.225
1208822400 338.305
1208908800 338.417
1208995200 338.493
1209081600 338.604
1209168000 338.72
1209254400 338.835
1209340800 338.987
1209427200 339.096
1209513600 339.182
1209600000 339.318
1209686400 339.458
1209772800 339.566
1209859200 339.749
1209945600 339.892
1210118400 340.092
1210204800 340.183
1210291200 340.324
1210464000 340.694
1210550400 340.862
1210636800 341.019
1210723200 341.084
1210809600 341.237
1210896000 341.358
1211068800 341.721
1211241600 341.956
1211328000 342.03
1211414400 342.339
1211500800 342.459
1211587200 342.618
1211673600 342.817
1211760000 343.028
1211846400 343.19
1211932800 343.334
1212192000 343.711
1212278400 343.878
1212364800 343.99
1212451200 344.187
1212624000 344.462
1212710400 344.574
1212883200 344.804
1212969600 345.026
1213142400 345.288
1213228800 345.422
1213401600 345.709
1213574400 346.383
1213660800 346.677
1213747200 346.802
1213833600 346.944
1214092800 347.276
1214179200 347.419
1214265600 347.54
1214438400 347.801
1214524800 347.92
1214697600 348.208
1214784000 348.339
1214870400 348.434
1214956800 348.544
1215043200 348.696
1215129600 348.793
1215475200 349.259
1215561600 349.368
1215648000 349.472
1215907200 350.1
1215993600 350.161
1216080000 350.28
1216166400 350.434
1216252800 350.547
1216339200 350.667
1216425600 350.764
1216512000 350.895
1216598400 351.021
1216684800 351.197
1216771200 351.331
1216857600 351.432
1216944000 351.559
1217116800 351.887
1217203200 351.994
1217289600 352.201
1217376000 352.307
1217462400 352.462
1217721600 352.886
1217808000 353.083
1217894400 353.203
1217980800 353.339
1218067200 353.477
1218153600 353.595
1218326400 353.931
1218412800 354.063
1218499200 354.197
1218585600 354.306
1218672000 354.461
1218758400 354.57
1218931200 354.895
1219017600 355.274
1219104000 355.401
1219190400 355.498
1219276800 355.676
1219363200 355.77
1219449600 355.915
1219536000 356.057
1219622400 356.315
1219708800 356.42
1219795200 356.549
1219968000 356.807
1220140800 357.18
1220227200 357.325
1220313600 357.473
1220400000 357.615
1220486400 357.699
1220572800 357.812
1220832000 358.269
1220918400 358.41
1221004800 358.535
1221091200 358.669
1221177600 358.806
1221264000 358.942
1221350400 359.073
1221436800 359.223
1221523200 359.387
1221609600 359.55
1221782400 359.823
1222300800 360.527
1222387200 360.779
1222560000 361.106
1222646400 361.284
1222732800 361.518
1222992000 361.974
1223164800 362.223
1223769600 362.382
1223856000 362.502
1223942400 362.638
1224028800 362.762
1224115200 362.919
1224201600 363.071
1224374400 363.551
1224460800 363.668
1224547200 363.763
1224633600 363.943
1224720000 364.064
1224806400 364.199
1224892800 364.308
1224979200 364.447
1225065600 364.619
1225152000 364.762
1225238400 365.086
1225324800 365.247
1225411200 365.375
1225584000 365.637
1225670400 365.754
1225756800 365.852
1225929600 366.072
1226102400 366.417
1226275200 366.728
1226448000 367.021
1226534400 367.158
1226620800 367.298
1226707200 367.452
1226793600 367.602
1226880000 367.732
1226966400 367.892
1227052800 367.957
1227139200 368.066
1227744000 369.157
1227830400 369.231
1227916800 369.35
1228003200 369.444
1228089600 369.556
1228176000 369.721
1228262400 369.905
1228348800 370.005
1228780800 370.575
1229385600 372.302
1229558400 372.567
1229644800 372.68
1230163200 373.514
1230249600 373.738
1230422400 374.038
1230508800 374.17
1230595200 374.774
1230681600 374.994
1230768000 374.986
1230854400 374.991
1230940800 374.704
1231027200 374.825
1231113600 374.941
1231200000 375.047
1231286400 375.169
1231372800 375.264
1231459200 375.389
1231545600 375.537
1231632000 375.68
1231718400 375.837
1231804800 375.969
1231891200 376.134
1231977600 376.247
1232064000 376.394
1232150400 376.614
1232236800 376.754
1232323200 376.924
1232409600 377.113
1232496000 377.261
1232582400 377.381
1232755200 377.655
1232841600 377.777
1232928000 377.901
1233014400 378.031
1233100800 378.154
1233187200 378.22
1233360000 378.44
1233446400 378.565
1233619200 378.847
1233792000 379.065
1234137600 379.515
1234224000 379.633
1234310400 379.767
1234396800 379.982
1234483200 380.114
1234742400 380.414
1234828800 380.577
1234915200 380.707
1235001600 380.926
1235260800 381.541
1235347200 381.677
1235520000 381.962
1235692800 382.219
1235865600 382.49
1235952000 382.617
1236038400 382.73
1236124800 382.86
1236384000 383.278
1236470400 383.368
1236556800 383.445
1236643200 383.526
1236988800 383.858
1237075200 383.969
1237161600 384.099
1237248000 384.224
1237334400 384.224
1237939200 385.201
1238025600 385.3
1238371200 385.88
1238457600 385.97
1238544000 386.077
1238630400 386.189
1238716800 386.282
1238803200 386.41
1238889600 386.53
1238976000 386.725
1239148800 386.993
1239235200 387.097
1239321600 387.201
1239408000 387.315
1239494400 387.432
1239580800 387.507
1239667200 387.651
1239753600 387.746
1240012800 388.28
1240099200 388.37
1240272000 388.68
1240358400 388.875
1240617600 389.227
1240704000 389.362
1240790400 389.504
1240876800 389.607
1240963200 389.719
1241395200 390.281
1241913600 391.088
1242518400 392.11
1242604800 392.198
1243814400 393.978
1245196800 396.842
1246233600 398.211
1246406400 398.724
1246752000 399.232
1247788800 400.879
1247875200 401.014
1248048000 401.202
1248739200 402.475
1248998400 402.869
1249257600 402.949
1249344000 403.061
1249516800 403.401
1249689600 403.788
1250208000 404.786
1250467200 405.223
1250726400 405.736
1251590400 407.181
1252972800 409.624
1254268800 411.373
1255478400 413.739
1255824000 414.356
1256169600 414.912
1256774400 415.94
1256947200 416.196
1257379200 416.876
1258329600 418.362
1258934400 419.369
1259193600 419.777
1259366400 420.047
1259452800 420.175
1259539200 420.286
1260316800 421.694
1260748800 422.301
1261180800 422.95
1261267200 423.059
1261785600 423.983
1262217600 424.683
1262563200 425.216
1262649600 425.346
1264896000 428.903
1265587200 430.162
1267228800 432.495
1267315200 432.628
1267488000 432.874
1268006400 433.677
1268092800 433.796
1269129600 435.32
1269993600 436.457
1270252800 436.768
1275782400 444.979
1275868800 445.179
1275955200 445.331
1276041600 445.451
1276473600 446.204
1278201600 450.124
1285200000 461.65
1286496000 463.894
1307232000 498.509
[wa]
941673600 0
949276800 1.9
949622400 2.19
1042761600 278.06
1042934400 278.26
1043712000 280.31
1044057600 281.62
1045180800 284.76
1072828800 367.47
1103500800 444.152
1103673600 444.873
1104451200 446.667
1105228800 448.661
1105574400 449.669
1105920000 450.197
1112486400 467.768
1120176000 489.565
1134172800 523.663
1134777600 525.779
1135728000 527
1135814400 527.372
1135900800 527.569
1136073600 528.503
1136160000 528.532
1136332800 528.86
1136419200 529.093
1136505600 529.258
1136592000 529.321
1136678400 529.59
1136764800 529.921
1136851200 530.009
1136937600 530.339
1137024000 530.69
1137110400 530.7
1137196800 530.823
1137283200 530.911
1137369600 531.368
1137456000 531.746
1137542400 532.123
1137628800 532.322
1137715200 532.649
1137888000 533.372
1137974400 533.698
1138060800 533.739
1138147200 533.936
1138233600 534.514
1138320000 534.575
1138406400 534.667
1138492800 534.809
1138579200 535.426
1138665600 535.584
1138752000 535.75
1138838400 0.295
1138924800 0.999
1139011200 1.22
1139097600 1.256
1139184000 1.407
1139270400 1.603
1139356800 1.898
1139443200 2.003
1139529600 2.202
1139616000 2.292
1139702400 2.312
1139788800 2.467
1139875200 2.971
1139961600 3.097
1140220800 3.917
1140307200 4.198
1140393600 4.337
1140480000 4.5569
1140566400 4.848
1140739200 5.219
1140825600 5.265
1140998400 5.814
1141084800 5.921
1141171200 6.145
1141344000 6.363
1141516800 6.812
1141603200 7.2
1141689600 7.209
1141776000 7.648
1141948800 8.208
1142035200 8.333
1142121600 8.51
1142208000 9.009
1142294400 9.294
1142380800 9.718
1142553600 10.144
1142640000 10.225
1142726400 10.319
1142812800 10.592
1142899200 10.92
1142985600 10.962
1143158400 11.26
1143244800 11.501
1143590400 12.933
1143763200 13.837
1143849600 13.913
1143936000 14.268
1144022400 14.481
1144108800 14.909
1144454400 15.97
1144540800 16.132
1144627200 16.319
1144713600 16.567
1144972800 17.5
1145059200 17.68
1145145600 18.079
1145232000 18.393
1145318400 18.456
1145577600 18.845
1145664000 18.9
1145750400 19.48
1145836800 19.619
1145923200 19.878
1146009600 20.27
1146096000 20.31
1146182400 20.33
1146268800 20.401
1146355200 20.738
1146441600 21.2851
1146528000 21.49
1146787200 21.821
1146873600 21.95
1146960000 22.118
1147046400 22.497
1147132800 22.747
1147392000 23.247
1147478400 23.513
1147564800 24.255
1147651200 24.47
1147737600 24.684
1148083200 25.584
1148169600 25.661
1148256000 25.942
1148342400 26.065
1148428800 26.39
1148860800 27.505
1148947200 27.565
1149206400 28.454
1149638400 29.653
1149724800 29.798
1149811200 29.815
1149897600 30.568
1149984000 30.58
1150070400 30.825
1150156800 31.198
1150416000 31.85
1150502400 31.989
1150588800 32.573
1150675200 32.988
1150761600 33.349
1150848000 33.492
1150934400 34.239
1151020800 34.883
1151107200 35.042
1151193600 35.588
1151280000 35.969
1151366400 36.17
1151452800 36.25
1151625600 36.339
1151798400 36.52
1151884800 36.66
1151971200 36.852
1152144000 37.234
1152230400 37.375
1152316800 37.504
1152403200 38.0117
1152576000 38.405
1152748800 38.599
1152835200 38.853
1152921600 38.942
1153008000 39.183
1153094400 39.61
1153180800 39.795
1153353600 40.34
1153612800 40.769
1153785600 41.3934
1153872000 41.849
1154217600 42.95
1154304000 43.099
1154563200 43.1264
1154995200 43.94
1155600000 45.6
1156032000 46.552
1156118400 47.149
1156204800 47.339
1156291200 47.485
1156464000 47.726
1156636800 47.8
1156723200 48.286
1156809600 48.543
1156896000 48.697
1156982400 49.034
1157068800 49.161
1157155200 49.259
1157241600 49.305
1157328000 49.769
1157414400 49.873
1157587200 50.24
1157673600 50.519
1157760000 50.703
1157846400 51.086
1157932800 51.311
1158019200 51.529
1158105600 51.665
1158278400 52.301
1158364800 52.4079
1158710400 53.542
1158796800 53.849
1158883200 53.947
1158969600 54.144
1159056000 54.426
1159142400 54.617
1159228800 54.713
1159315200 54.856
1159488000 54.98
1159574400 55.546
1159833600 56.171
1159920000 56.357
1160006400 56.769
1160092800 56.837
1160265600 57.367
1160352000 57.398
1160438400 57.569
1160524800 57.817
1160611200 57.942
1160870400 58.737
1160956800 59.127
1161043200 59.328
1161129600 59.554
1161216000 59.643
1161302400 59.855
1161475200 60.431
1161561600 60.54
1161820800 60.956
1161993600 61.205
1162080000 61.602
1162166400 62.023
1162252800 62.211
1162339200 62.255
1162425600 62.486
1162771200 63.008
1162944000 63.413
1163030400 63.823
1163116800 64.029
1163289600 64.214
1163462400 64.68
1163548800 64.933
1163635200 65.188
1163808000 65.599
1163980800 65.896
1164067200 66.081
1164153600 66.445
1164499200 67.066
1164672000 67.963
1164931200 68.2
1165104000 68.739
1165190400 68.739
1165536000 70.182
1165708800 70.446
1165795200 70.812
1166054400 71.122
1166313600 71.462
1166486400 72.126
1166659200 72.516
1166918400 73.312
1167523200 74.61
1167696000 75.08
1167782400 75.122
1168041600 75.6648
1168128000 75.699
1168214400 75.825
1168300800 76.032
1168387200 76.169
1168732800 76.798
1168819200 77.381
1168905600 77.53
1168992000 78.02
1169078400 78.071
1169164800 78.221
1169337600 78.291
1169424000 78.845
1169510400 79.086
1169596800 79.19
1169683200 79.237
1169769600 79.395
1169856000 79.594
1169942400 79.806
1170028800 80.483
1170115200 80.628
1170201600 80.706
1170288000 80.98
1170374400 81.067
1170460800 81.645
1170547200 80.939
1170633600 82.092
1170720000 82.306
1170806400 82.62
1170892800 82.728
1170979200 82.842
1171065600 83.081
1171152000 83.347
1171238400 83.621
1171324800 83.929
1171411200 84.295
1171497600 84.398
1171584000 84.47
1171670400 84.718
1171756800 84.961
1171843200 85.417
1171929600 85.437
1172016000 85.573
1172102400 85.666
1172188800 85.729
1172275200 85.923
1172361600 86.183
1172448000 86.608
1172534400 86.906
1172620800 87.438
1172707200 87.673
1172966400 88.644
1173052800 88.965
1173139200 89.147
1173225600 89.469
1173312000 89.663
1173398400 90.003
1173484800 90.042
1173571200 90.139
1173657600 90.325
1173744000 90.42
1173830400 90.503
1173916800 90.606
1174003200 90.93
1174089600 91.131
1174176000 91.409
1174262400 91.702
1174348800 91.836
1174435200 92.298
1174521600 92.963
1174608000 93.004
1174780800 93.482
1174867200 93.699
1174953600 93.946
1175040000 94.021
1175126400 94.087
1175212800 94.207
1175299200 94.337
1175385600 94.503
1175472000 94.79
1175558400 95.073
1175644800 95.321
1175731200 95.533
1175817600 95.674
1175970840 95.954
1175990400 96.175
1176076800 96.352
1176163200 96.464
1176422400 97.749
1176508800 97.986
1176595200 98.742
1176681600 99.956
1176768000 100.698
1176854400 101.029
1176940800 101.417
1177027200 101.913
1177113600 102.431
1177200000 103.508
1177286400 103.823
1177372800 104.496
1177459200 105.065
1177545600 105.272
1177632000 105.74
1177718400 106.138
1177804800 106.742
1177891200 107.073
1177977600 107.708
1178064000 107.993
1178150400 108.717
1178236800 109.134
1178409600 109.765
1178582400 110.319
1178668800 110.624
1178755200 110.663
1178841600 110.869
1179014400 111.241
1179187200 111.533
1179446400 112.146
1179532800 112.263
1179619200 112.428
1179705600 112.741
1179792000 113.134
1179878400 113.202
1179964800 113.274
1180224000 113.651
1180310400 113.719
1180569600 114.172
1180656000 114.26
1180742400 114.503
1180828800 114.679
1180915200 114.897
1181001600 114.987
1181088000 115.212
1181174400 115.389
1181260800 115.64
1181347200 115.699
1181433600 115.995
1181692800 116.77
1181952000 117.556
1182124800 118.199
1182211200 118.534
1182297600 118.752
1182643200 119.695
1182729600 120.017
1182902400 120.585
1182988800 120.787
1183075200 120.858
1183161600 120.909
1183248000 120.971
1183507200 121.965
1183680000 122.227
1183766400 122.336
1183852800 122.498
1183939200 122.72
1184025600 122.909
1184112000 123.066
1184198400 123.204
1184371200 123.499
1184457600 123.616
1184544000 123.948
1184630400 124.059
1184803200 124.185
1184976000 124.734
1185062400 124.888
1185148800 125.409
1185235200 126.059
1185321600 126.252
1185408000 126.543
1185580800 126.784
1185667200 127.001
1185753600 127.103
1186012800 127.706
1186099200 128.048
1186185600 128.089
1186272000 128.226
1186358400 128.539
1186444800 128.78
1186704000 129.205
1186876800 129.23
1186963200 129.5
1187049600 129.606
1188086400 132.499
1188259200 132.716
1188345600 132.828
1188432000 132.887
1188604800 133.62
1188691200 133.672
1188777600 133.735
1188950400 134.004
1190246400 136.004
1191110400 139.033
1192060800 0.253
1192406400 1.393
1192492800 2.033
1192752000 3.068
1192924800 3.76
1193011200 4.134
1193443200 5.727
1195603200 12.555
1197331200 16.292
1198022400 17.984
1198108800 18.225
1198195200 18.673
1198281600 18.785
1198368000 18.867
1198454400 18.971
1198540800 19.34
1198627200 19.557
1198713600 19.641
1198800000 19.778
1198886400 19.858
1198972800 19.96
1199059200 20.553
1199145600 20.686
1199232000 21.085
1199318400 21.214
1199404800 21.372
1199491200 21.445
1199577600 21.8
1199664000 21.997
1199750400 21.997
1199836800 22.307
1199923200 22.463
1200009600 22.534
1200096000 22.591
1200182400 22.785
1200268800 22.984
1200700800 23.618
1200787200 23.67
1200873600 23.888
1200960000 24.482
1201046400 24.622
1201132800 24.754
1201219200 25.095
1201305600 25.178
1201392000 25.376
1201478400 25.504
1201564800 25.993
1201651200 26.282
1201737600 26.348
1201824000 26.446
1201910400 26.677
1201996800 26.822
1202083200 27.068
1202169600 27.264
1202256000 27.456
1202342400 27.598
1202428800 27.938
1202515200 28.107
1202601600 28.201
1202688000 28.684
1202774400 28.736
1202860800 28.909
1202947200 29.101
1203033600 29.521
1203120000 29.648
1203206400 29.759
1203292800 30.14
1203379200 30.409
1203465600 30.685
1203552000 30.961
1203638400 31.048
1203811200 31.544
1203897600 31.625
1204070400 31.973
1204156800 32.047
1204243200 32.188
1204416000 32.934
1204502400 33.093
1204588800 33.159
1204675200 33.264
1204761600 33.472
1204848000 33.816
1204934400 34.138
1205020800 34.227
1205107200 34.648
1205193600 34.796
1205280000 34.832
1205366400 35.155
1205539200 35.503
1205625600 35.72
1205712000 35.925
1205798400 36.265
1205884800 36.334
1205971200 36.4
1206057600 36.765
1206144000 36.976
1206316800 37.262
1206403200 37.392
1206489600 37.654
1206576000 37.99
1206662400 38.064
1206748800 38.201
1206835200 38.365
1206921600 38.551
1207008000 38.82
1207094400 39.01
1207180800 39.334
1207267200 39.554
1207353600 39.599
1207440000 40.008
1207526400 40.338
1207612800 40.438
1207699200 40.753
1207872000 40.929
1207958400 41.006
1208044800 41.285
1208131200 41.652
1208304000 42.09
1208390400 42.171
1208476800 42.251
1208563200 42.531
1208649600 42.838
1208736000 43.176
1208822400 43.438
1208908800 43.518
1208995200 43.594
1209081600 43.66
1209168000 43.728
1209254400 43.966
1209340800 44.394
1209427200 44.529
1209513600 44.789
1209600000 44.918
1209686400 45.167
1209772800 45.604
1209859200 45.72
1209945600 46.278
1210118400 46.705
1210204800 46.775
1210291200 46.86
1210464000 47.298
1210550400 47.495
1210636800 48.021
1210723200 48.112
1210809600 48.278
1210896000 48.404
1211068800 48.697
1211241600 49.179
1211328000 49.351
1211414400 49.9
1211500800 50.321
1211587200 51.001
1211673600 51.283
1211760000 51.632
1211846400 51.964
1211932800 52.213
1212192000 53.324
1212278400 54.015
1212364800 54.304
1212451200 54.401
1212624000 54.628
1212710400 54.771
1212883200 55.055
1212969600 55.414
1213142400 56.089
1213228800 56.39
1213401600 56.522
1213574400 57.298
1213660800 57.534
1213747200 57.69
1213833600 57.974
1214092800 58.492
1214179200 58.784
1214265600 59.139
1214438400 59.612
1214524800 59.787
1214697600 60.136
1214784000 60.552
1214870400 60.604
1214956800 60.975
1215043200 61.362
1215129600 61.558
1215475200 63.642
1215561600 63.792
1215648000 64.408
1215907200 65.453
1215993600 65.624
1216080000 66.152
1216166400 67.792
1216252800 71.162
1216339200 72.642
1216425600 73.342
1216512000 73.557
1216598400 73.643
1216684800 73.805
1216771200 73.977
1216857600 74.001
1216944000 74.637
1217116800 76.018
1217203200 76.394
1217289600 76.903
1217376000 77.874
1217462400 77.941
1217721600 78.324
1217808000 78.796
1217894400 78.875
1217980800 78.991
1218067200 79.431
1218153600 79.642
1218326400 79.947
1218412800 80.042
1218499200 80.314
1218585600 80.343
1218672000 80.505
1218758400 80.667
1218931200 81.372
1219017600 82.011
1219104000 82.0188
1219190400 82.468
1219276800 84.027
1219363200 84.177
1219449600 84.283
1219536000 84.368
1219622400 84.861
1219708800 85.06
1219795200 85.151
1219968000 85.466
1220140800 87.119
1220227200 87.975
1220313600 88.727
1220400000 89.004
1220486400 89.231
1220572800 89.547
1220832000 90.237
1220918400 90.31
1221004800 90.696
1221091200 91.081
1221177600 91.261
1221264000 91.489
1221350400 91.667
1221436800 91.871
1221523200 92.108
1221609600 92.351
1221782400 92.936
1222300800 95.015
1222387200 95.327
1222560000 96.067
1222646400 96.577
1222732800 96.917
1222992000 97.582
1223164800 98.429
1223769600 98.458
1223856000 98.707
1223942400 98.751
1224028800 98.958
1224115200 99.276
1224201600 99.449
1224374400 99.93
1224460800 100.091
1224547200 100.537
1224633600 100.79
1224720000 100.915
1224806400 100.977
1224892800 101.118
1224979200 101.487
1225065600 101.607
1225152000 102.001
1225238400 102.524
1225324800 102.657
1225411200 103.016
1225584000 103.172
1225670400 103.96
1225756800 104.208
1225929600 104.637
1226102400 104.899
1226275200 105.309
1226448000 106.057
1226534400 106.393
1226620800 106.615
1226707200 106.932
1226793600 107.11
1226880000 107.621
1226966400 107.724
1227052800 107.934
1227139200 108.264
1227744000 109.863
1227830400 110.288
1227916800 110.424
1228003200 110.505
1228089600 110.707
1228176000 110.844
1228262400 111.017
1228348800 111.264
1228780800 112.642
1229385600 114.889
1229558400 115.072
1229644800 115.161
1230163200 116.607
1230249600 116.787
1230422400 117.199
1230508800 117.408
1230595200 117.517
1230681600 117.782
1230768000 118.111
1230854400 118.215
1230940800 118.636
1231027200 118.948
1231113600 119.109
1231200000 119.234
1231286400 119.635
1231372800 120.045
1231459200 120.248
1231545600 120.356
1231632000 120.557
1231718400 120.742
1231804800 121.145
1231891200 121.422
1231977600 121.898
1232064000 122.113
1232150400 122.587
1232236800 122.784
1232323200 122.989
1232409600 123.297
1232496000 123.394
1232582400 123.977
1232755200 124.3
1232841600 124.741
1232928000 125.088
1233014400 125.221
1233100800 125.567
1233187200 125.885
1233360000 126.085
1233446400 126.173
1233619200 126.675
1233792000 127.367
1234137600 128.339
1234224000 128.595
1234310400 128.706
1234396800 128.966
1234483200 129.201
1234742400 130.067
1234828800 130.492
1234915200 130.855
1235001600 130.944
1235260800 131.722
1235347200 131.868
1235520000 132.365
1235692800 132.611
1235865600 133.158
1235952000 133.772
1236038400 133.943
1236124800 134.131
1236384000 135.176
1236470400 135.333
1236556800 135.632
1236643200 135.804
1236988800 136.537
1237075200 136.607
1237161600 136.775
1237248000 137.021
1237334400 137.209
1237939200 139.614
1238025600 139.756
1238371200 140.565
1238457600 140.646
1238544000 140.844
1238630400 141.029
1238716800 141.111
1238803200 141.393
1238889600 141.505
1238976000 141.66
1239148800 142.359
1239235200 142.387
1239321600 142.587
1239408000 142.684
1239494400 142.824
1239580800 143.193
1239667200 143.495
1239753600 143.751
1240012800 144.486
1240099200 144.597
1240272000 145.225
1240358400 145.29
1240617600 145.909
1240704000 146.115
1240790400 146.631
1240876800 146.978
1240963200 147.104
1241395200 148.017
1241913600 149.436
1242518400 150.798
1242604800 150.952
1243814400 153.374
1245196800 157.147
1246233600 160.435
1246406400 160.945
1246752000 161.521
1247788800 164.38
1247875200 164.441
1248048000 164.635
1248739200 166.322
1248998400 167.202
1249257600 167.298
1249344000 167.711
1249516800 168.186
1249689600 168.402
1250208000 169.7
1250467200 169.984
1250726400 170.383
1251590400 173.367
1252972800 177.463
1254268800 180.851
1255478400 184.65
1255824000 185.311
1256169600 185.964
1256774400 188.273
1256947200 188.997
1257379200 190.17
1258329600 192.58
1258934400 194.398
1259193600 195.142
1259366400 195.71
1259452800 195.932
1259539200 196.089
1260316800 197.734
1260748800 198.48
1261180800 199.374
1261267200 199.523
1261785600 200.749
1262217600 201.87
1262563200 202.908
1262649600 203.211
1264896000 208.8
1265587200 210.682
1267228800 214.39
1267315200 214.491
1267488000 215.117
1268006400 215.985
1268092800 216.323
1269129600 218.37
1269993600 220.803
1270252800 221.816
1275782400 232.346
1275868800 232.612
1275955200 232.744
1276041600 232.998
1276473600 234.004
1278201600 238.624
1285200000 262.312
1286496000 266.838
1307232000 335.101
